Time,LA_AccelerometerX,LA_AccelerometerY,LA_AccelerometerZ,LA_GyroscopeX,LA_GyroscopeY,LA_GyroscopeZ,LL_AccelerometerX,LL_AccelerometerY,LL_AccelerometerZ,LL_GyroscopeX,LL_GyroscopeY,LL_GyroscopeZ,N_AccelerometerX,N_AccelerometerY,N_AccelerometerZ,N_GyroscopeX,N_GyroscopeY,N_GyroscopeZ,RA_AccelerometerX,RA_AccelerometerY,RA_AccelerometerZ,RA_GyroscopeX,RA_GyroscopeY,RA_GyroscopeZ,RL_AccelerometerX,RL_AccelerometerY,RL_AccelerometerZ,RL_GyroscopeX,RL_GyroscopeY,RL_GyroscopeZ
2019-08-03 16:33:05.824264,-0.22324236304325226,1.665765922943669,1.2849685980409324,-55.73794503507448,162.84428852818124,209.82298939729526,1.160332386890964,0.8909596437400797,-0.5661655463438168,19.961355994091118,38.53336283970674,30.078412931684333,-1.211155569583153,-0.04700917403327867,0.41135574015007037,-162.65800385637564,85.02823374301128,49.78370272950264,-0.8536089209015458,-0.9786393154463193,0.5539810378995712,49.269728604836,212.8378526958465,114.92564674297566,0.07306510427243808,-1.0113845076058179,-0.14333965045938796,-5.629977697755537,-13.539100618761854,5.290181306082585
2019-08-03 16:33:05.834264,-0.2432708190218546,1.2209400437930393,1.2474026598758714,-150.21382497990993,159.93888472092598,91.29521143879391,-1.7645082718700074,0.2250795685790122,-0.7575043058640006,59.97276003893808,382.5361449635258,-43.897115513693066,-1.0608638081146884,0.17394300174807095,0.22709958568775532,-85.2682033188315,24.037645340651885,29.17355436994847,-1.0206314059819788,-0.9518411557332441,0.4533143865740542,51.70736594761762,185.04115959076785,114.19631528497057,0.07020638221938111,-1.008871017444033,-0.14067870873693983,-5.519932248817659,-13.554301050252883,6.415255817269187
2019-08-03 16:33:05.844264,-0.2890900403608851,1.2285947923138396,1.2652043915104623,-153.9130636622997,167.19556795405796,90.25828767679465,-0.43884855127363376,0.5072511927889731,-0.694368387458324,49.68310590240198,283.0850914736432,-21.37937483815063,-0.9604325319985796,0.2485196391906694,0.15861481686986403,-66.61509564328418,-6.895130039838325,23.071589659218642,-1.105737582806407,-0.9866718900725212,0.35406022125914954,57.298535862380334,167.3559588553269,110.87276849283481,0.06781448672644794,-0.997693306536609,-0.1507527668599376,-5.494109437540458,-14.43571624453744,7.828292442928862
2019-08-03 16:33:05.854264,-0.37849493823536257,1.253242210831116,1.3352206241956601,-176.7760502667451,172.5130889707918,62.17581538384796,-0.043089476792725345,0.6545592535523865,-0.6157650715488816,51.98351157030142,283.820753702579,-29.530164856876418,-0.9741234634220483,0.26439924812473325,0.1942898337597908,-63.03951749610755,-1.3122054889911816,24.20557589900544,-1.1440445535828823,-1.0206516619655397,0.2891349052173113,59.24023092284973,160.04582547101583,110.67096758654023,0.04047383100954334,-0.9850475876227819,-0.17378759451636677,-5.7980131044356416,-14.539928027773458,9.293715859766467
2019-08-03 16:33:05.864264,-0.4592947956585067,1.2381632133615876,1.4216169383855826,-193.906833807414,160.61997787290548,42.97593728508216,-0.19282799856780483,0.6599105755101701,-0.6004410355259168,61.975396209188425,326.04866902128697,-47.75727710015733,-0.9267264151910997,0.2938412299506915,0.22515009058754284,-60.29182592151957,-6.021561092656763,25.50325136952663,-1.2475631079951823,-1.0529897882976025,0.14752068472763272,61.127782538476026,153.1524266455073,116.5792469620659,0.02796103067144483,-0.979905312543878,-0.17106294212136544,-5.761582564317676,-14.359262136912898,10.192214437613007
2019-08-03 16:33:05.874264,-0.40698741443082975,1.3072238850229907,1.6207273810746323,-178.2942279830781,180.93518510565636,37.56463629650361,-0.21676858957213377,0.7372625295517088,-0.571766900969088,70.56879596367891,328.0587085314477,-54.51971295589645,-0.910890333113141,0.3032502165767306,0.23998079300655586,-61.41756349678593,-6.589288551932452,26.13631302438804,-1.2929989019318942,-1.030739187316485,0.07039823865106201,60.4103319288591,154.3572226443187,122.61127117310544,0.019085042169976113,-0.9721221005437991,-0.16497722962587474,-5.781124019687826,-14.668372647798522,10.967456829111036
2019-08-03 16:33:05.884264,-0.375575815924292,1.3293995967108396,1.6579700212803232,-171.492973383555,187.3139981724219,38.70818365488003,-0.4863173821495568,0.8065310051745113,-0.40497282792851963,71.18825225898169,344.3207328967457,-67.13021335589339,-0.9326619570725572,0.28926864827623033,0.23893579279183574,-62.583171199185486,-6.66961988352363,27.933929403653426,-1.3105754023080087,-0.9995124138618009,0.03591739913915508,58.1164461889618,157.7662170520032,125.02355339756224,0.012860692208961286,-0.9698161224852577,-0.15725922441463647,-5.930966829267503,-15.89765957693041,11.960139669319798
2019-08-03 16:33:05.894264,-0.5741843463419237,1.1017184412153884,1.248896338499208,-236.90292970439583,108.72043674806083,29.41026391562927,-0.40590547653205034,0.8357258577308284,-0.1198318362363279,67.47832361600518,347.6956116991989,-78.28720038809499,-0.9395934437394917,0.27054550481357437,0.23699987605997344,-67.21532739078471,-7.812036395534996,30.144370991127378,-1.3810589268488278,-0.9327748961208028,-0.04473235538115214,48.91998751804792,170.35224128030342,133.87047008032388,0.01008120716172473,-0.9817267485771881,-0.14529445801207333,-6.0975363740636155,-18.531250501373265,13.386087074485621
2019-08-03 16:33:05.904264,-0.5568553171584043,1.098922985158579,1.3630656179153335,-218.95027930947117,132.53406451995667,40.10520016108581,-0.47179048057187023,0.8414679195568967,0.08856909544495484,68.47202457074333,327.7626376801048,-81.9532730919151,-0.9757885928588947,0.2392720042727087,0.22465886128182336,-68.20617060897034,-4.76069147826735,30.890476782878864,-1.454872089812852,-0.899060504336272,-0.1144834881482954,40.52112102898209,185.2753076809579,145.0178092827259,0.0025682854017609223,-0.9942819307277417,-0.18576777186482052,-6.485284611478676,-22.104302593811152,14.4954204408866
2019-08-03 16:33:05.914264,-0.5446833299183806,1.034823107530566,1.333339943817323,-224.62646491970952,123.53657166699224,41.80018467389159,-0.534185974166064,0.8713852973218259,0.19342971232893993,62.38309335566749,293.84356905003074,-85.69012886523903,-1.0183359024349379,0.21503131064743922,0.24181617600102442,-72.1190354544492,11.302245020167316,29.353358285107095,-1.5250270494243865,-0.9021994157839597,-0.17109403867162304,32.32942483800292,195.1243143479718,155.88410273168947,-0.016062082270654303,-0.9875464900403276,-0.2392603813213928,-5.7310426067998534,-29.322643818444302,15.296190553822155
2019-08-03 16:33:05.924264,-0.7904882449408034,1.3796323366488672,1.1547221548582702,-254.54947786838662,109.21750687661766,13.904027609148208,-0.47276234401419276,0.8846871423174316,0.2439548830326138,58.38564415206726,267.08778396047956,-89.38642678712499,-0.990346624977645,0.18414160396723533,0.2808168695321371,-72.99840014817266,14.72689718583097,25.044089724942598,-1.67292355921065,-0.9255090899095997,-0.25631101589294586,8.930010055477196,206.79610170476826,179.6942248003023,-0.014261778326171669,-0.9934965637439683,-0.17127472972778898,-6.508113112157777,-38.027498363655596,16.351205214990852
2019-08-03 16:33:05.934264,-0.7223197014185032,1.3826917579463918,1.1447393495147338,-254.14063748080903,107.12888739293611,12.050002070905169,-0.4328315981681966,0.8871439787937242,0.2788104844227152,58.15106475513494,256.1670003135179,-90.5737590252818,-1.1343290161498283,0.11801159462034776,0.24749076612811116,-75.40793768699284,13.775161690039045,22.48069652709401,-1.7334691301964607,-0.9819708009846212,-0.30515110132339895,-9.612793733523516,203.837807553537,194.48209538959998,0.0018486660624999476,-0.9917882318933228,-0.1357419560233367,-7.198664705692105,-42.72046039597402,16.87120675504132
2019-08-03 16:33:05.944264,-0.7266296276881553,1.4081612027340766,1.050671148367665,-261.9314715102216,108.30162682865213,0.22579740455684918,-0.38069735600392846,0.8648542647819671,0.2717278729283468,53.84213464742107,214.8497141604828,-94.12148948093912,-1.2458775328426295,0.04826288776583314,0.22222867424141535,-77.55399288652356,16.17743977447446,21.999337222522843,-1.6956123743310398,-1.0354491480179868,-0.3555599918159255,-22.2455874150086,190.27232455318926,200.94247248359525,0.01972564254987673,-0.9905472528406553,-0.14360588357729762,-7.192311718506611,-45.474128744019886,16.191582436520903
2019-08-03 16:33:05.954264,-0.7267004968461933,1.3115181895103225,0.9615187486115464,-270.5898105574376,124.16299264322723,-18.071527826589264,-0.36763176323164315,0.9329137596929462,0.2356009110940573,46.95958647840489,159.04165123464,-96.90135045005282,-1.2373027160766272,0.022810037259706612,0.24068682416811493,-80.15226079515942,18.16871310360735,21.585662527298375,-1.6203898749435586,-1.1028207994234456,-0.43134421936314504,-48.212890272641005,152.7129190334951,212.54290352885573,0.047930758055760414,-1.0056628882170418,-0.15774750537527615,-7.5933942417829305,-49.0024722889201,17.111873525935273
2019-08-03 16:33:05.964264,-0.7713772728370856,1.2338566513127616,0.9326995953974463,-275.5036310482875,142.43090045499835,-32.37873406180173,1.4924491310346282,1.3260647263098548,0.09861387115865702,48.387735756830935,107.24968590010927,-98.03697829443801,-1.1473306267191927,-0.051617473927856844,0.29436579366838983,-77.6830445038309,18.591237099633453,18.71075507733404,-1.5741471315891866,-1.1543024605239418,-0.48367556639988796,-63.802530400289285,123.08174033402241,218.48832279895052,0.0999239972086315,-1.0330578714271976,-0.17154747672747309,-9.524166026508006,-55.25343558654245,19.06882115521271
2019-08-03 16:33:05.974264,-0.796361846669349,1.2061273944161428,0.922724292045472,-276.57864340561724,154.19253547931194,-41.45430104597162,1.6528328964357009,2.153158875954348,3.726748469743764,56.370527250395355,55.99469167586174,-47.579631342768174,-0.9903135537013681,-0.10952934932267576,0.23995606562805424,-71.11529024631396,8.63170401107788,10.79579077266957,-1.5495257524910138,-1.1974432016555971,-0.5022690712578012,-76.72982922911008,103.32788463891885,221.57858677544186,0.10299145264594213,-1.033123825648209,-0.16834768082663668,-9.32763882986895,-55.799326084320484,20.058436007241976
2019-08-03 16:33:05.984264,-0.8078843970300325,1.1588828694147535,0.8879988584600722,-276.8360645030914,167.01187439965895,-54.27565478172417,-1.5240366328716661,1.7253713159665016,3.387693715988647,22.337580481341217,23.40599486329834,12.043131707590312,-0.8513979650370002,-0.10019661288692211,0.1666324630850347,-61.123861357184424,-10.923643672625865,0.8054631181518426,-1.542369599641789,-1.2623077084359398,-0.5294059930987507,-101.58490072465428,66.66676664272731,228.75074219169122,-0.04565652399768666,-1.0047464840025528,-0.1489993418351919,-6.672877439589599,-54.9833542162835,31.141859567570286
2019-08-03 16:33:05.994264,-0.8065911021942672,1.0492377067237002,0.7900271786948296,-276.66721588615275,185.53226013857147,-80.63739103480779,-1.9437838357887003,0.9274734262717853,1.7274004044786233,-57.47607619291935,57.012637375753165,-12.004160877969658,-0.8271958048465673,-0.09926111778217837,0.1513850856569365,-54.650399025371776,-15.34308030826833,-3.2956439559349278,-1.5499912095012494,-1.2734509544788644,-0.5448354097612993,-110.01609407506939,48.52444216614785,232.32341776134498,-0.05530046277462805,-1.0200762557592777,-0.15794370022202303,-8.70943741465104,-59.845274962885426,26.191437271995
2019-08-03 16:33:06.004264,-0.8323920710703195,0.9120421290104029,0.7001967865586792,-274.1280851908212,204.7193611109044,-107.90845984486708,-0.014521261497512442,0.8911182295531416,-0.8592209798124939,-94.18825551200608,36.085157180162,-52.72285686568379,-0.8629193971687844,-0.05464654857281012,0.15575041360617475,-48.78491444702727,-3.365232064596677,-7.4717583969518895,-1.4896153707177717,-1.2730310715502484,-0.5330992357473794,-121.74450591334138,5.963802366991434,237.12187971925044,0.04550148176534625,-1.0724334193097462,-0.0769491986416216,2.3900223448492808,-17.423935648816208,33.19414748531153
2019-08-03 16:33:06.014264,-0.8856242076444139,0.8719007263760008,0.6686807757325326,-268.89580138849357,220.17307029298436,-126.97981889904325,1.2093532659786315,0.9983289670625707,-2.1143304685607505,-29.784623142358086,-63.85522879136114,-63.378691174930424,-0.9333758775882047,0.04570263480146153,0.22377635479043798,-37.53923944039233,8.917830293617069,-10.664251441132432,-1.3821450876945731,-1.3402775476203206,-0.4751326835389068,-130.45823566519215,-34.123304179045164,242.61917594647426,0.17747362010227136,-1.199561546509793,0.08585329996929447,-11.640117724604817,-44.355311527455676,36.858292569769276
2019-08-03 16:33:06.024264,-0.913776431082198,0.8855640342781992,0.6307323865158542,-263.7806693421315,227.75333448524816,-139.09221612182046,0.2611262664979432,1.022157028588491,-0.7398772747609589,-5.765931218562401,-58.982305084468415,-54.510065372777696,-0.9689250745773658,0.0802882122100074,0.21419560535041954,-29.5306662147456,10.433324545892402,-12.227767730760208,-1.3276087084812476,-1.3687353269837552,-0.41968659705212574,-135.55750310687398,-46.76532813061548,246.64188463197686,0.08398291323267544,-1.133486803517068,-0.02578215995031312,-12.96342267830248,-49.207604217089255,32.5483125778007
2019-08-03 16:33:06.034264,-0.9702805367729701,0.8858434768425058,0.5502400943763063,-252.4108884083096,235.59573686671902,-165.3575081658182,-0.8322477483248868,1.1650409298099025,0.43023831966510473,10.951635658210849,-59.478344312809675,-47.48809140191619,-1.006455296458237,0.10794981137272416,0.2081792113473203,-27.080664973174997,7.774572333760352,-12.686391510576538,-1.2383764110806648,-1.3847863728754621,-0.3070153709304633,-144.01421841522662,-56.98542709370594,255.7508869249282,-0.14213622698299366,-0.9592898496577643,-0.20398584450692325,5.429357887947087,8.722229301567403,7.826955408969696
2019-08-03 16:33:06.044264,-1.022211786821919,0.8475113483316077,0.4947340739028768,-241.61714939066758,234.57964761153278,-185.08758007171429,-1.297418987636222,1.3183285264640414,1.0109177524769042,20.77280756093,-54.2098898944282,-42.3266796668728,-1.0477354846768545,0.1225719060779619,0.20839504647774873,-27.237671753506344,6.477922520395833,-12.330816472055457,-1.2043317383942294,-1.370609101112123,-0.26669983245571893,-150.9457370402145,-51.899997554135176,261.446302550085,-0.1369792244754168,-0.9565538572494204,-0.16134758943750635,8.737746155578007,11.52338188734688,-1.0885930600567453
2019-08-03 16:33:06.054264,-1.0241203779562273,0.8450543734581368,0.44163005115240866,-232.0501417047856,224.71382372223374,-197.7218128370916,-0.5447245333791774,1.3220533968155137,0.9208752040804338,25.689987549326855,-23.579648070199678,-35.42352797150895,-1.0829317343299767,0.11515484805772329,0.1988090889527159,-28.078785411402777,6.764260464995811,-11.497704734888679,-1.1882102211181704,-1.3525929779460806,-0.24597594545335708,-153.58339636909756,-47.39963335423734,262.82360599556887,-0.022841521632152917,-1.0054082096760446,-0.11758363914374281,6.3607421890838545,11.145692038435756,-10.90835936714467
2019-08-03 16:33:06.064264,-1.0267272134724041,0.8405738030836037,0.37695940975795617,-209.53145643135068,192.83455980245301,-223.84352957668844,0.5676951281559621,1.1062108966728732,0.1116554084809796,22.727594796817538,-1.4282303825829898,-41.73354287237594,-1.1132572332436699,0.10133729338031301,0.1912560371426419,-28.932715107755094,7.73335512259761,-10.47863601455187,-1.1863101294758802,-1.3423832940181197,-0.20468697428232205,-158.4271495328341,-37.726435787343895,265.7800822019916,0.007355953689073751,-1.0118888992765342,-0.12035575434489143,4.870475425079378,10.648117548842228,-14.741258436593201
2019-08-03 16:33:06.074264,-1.0405648218279508,0.8064097925125865,0.40938155782874597,-190.81974793351992,165.43695562785283,-241.50265481031713,-0.1336075413965721,1.0003958115604976,0.007450290754408482,22.618131309017038,-15.82375190779913,-41.7581499032803,-1.137079488857546,0.06945696067244811,0.20616743248037828,-31.043435290637778,8.559790735886747,-7.431934284229889,-1.2703627533459279,-1.3326930240748462,-0.1399591043842861,-165.23087737336942,-31.550874487086123,267.65575759480384,0.015429873546212409,-1.0355299809099667,-0.07747026841887102,7.147750349679173,10.643456285886419,-18.65339687533376
2019-08-03 16:33:06.084264,-1.0442452745442545,0.8155478980609657,0.438959848500832,-178.9755245145238,145.27980324701713,-250.90562359581887,0.1578500450382824,0.9295361725339029,-0.19739454314203145,17.008958609451998,20.577433544234516,-35.493915937624266,-1.1567321592055693,0.02507984592003213,0.24013431895626483,-31.13881805774053,7.588925884740001,-2.8645396853683693,-1.268806674551369,-1.3324319483734146,-0.09193868706640304,-167.91280143742023,-30.90945023745259,267.2053854422134,0.027665512174440847,-1.0093213323031667,-0.15528553729793926,2.810191577306657,11.15918386703491,-15.987333470383795
2019-08-03 16:33:06.094264,-1.0229937876329307,0.8424880009681505,0.4961332154334508,-158.27295662996795,99.5598745905551,-271.6455252898157,0.16312142966971163,0.8745471199381927,-0.4090275267896063,12.913251498995338,27.916932367896862,-45.09628940108374,-1.1443046374142263,-0.010723256341822461,0.22880637839910004,-26.45585416552607,-0.5211432198442892,-0.008157850686918183,-1.1768437416840205,-1.3233644529475335,-0.039747059075677556,-170.9294271259349,-31.53753739288823,269.82860050285916,0.021576435541391985,-1.0067386916558516,-0.1531355794553156,3.9333967929909606,10.419184974644647,-14.772661152951056
2019-08-03 16:33:06.104264,-0.9784310368800633,0.8575905909989107,0.5656208990077602,-146.95660108432074,65.45688350711556,-287.1140532502758,-0.030387587504984777,0.885800656706371,-0.3126912137460467,3.664207026176355,35.50111155559959,-41.404220278997315,-1.0564776810756809,-0.01729007333346157,0.24257126874836177,-18.50465581687794,-9.785568886131145,0.2340863462730138,-1.1599651309510193,-1.2471055159735225,-0.01644852254322197,-170.07356015384482,-24.818887621258305,279.76247606679505,0.021677897691912685,-1.0051770214897464,-0.16403239201159195,3.9002875576488063,11.013476099008061,-12.863712655686216
2019-08-03 16:33:06.114264,-0.9057347885676326,0.8692608062987315,0.6052482960768657,-141.7761516013996,44.53929043676453,-296.31674690394334,-0.1460832119497347,1.0013112306414556,-0.176014223324308,-7.866072517768126,66.28558429876985,-29.052398374151572,-1.038648460187397,-0.015269220833914606,0.2390819672889325,-7.308127507199841,-13.832169062983148,-2.383299516388025,-1.1874200949112077,-1.1779591646057286,0.0035916901365352846,-168.85495166745778,-17.067345701389975,284.6976154276348,0.025030013606449558,-0.9996457077528106,-0.1712468138069845,4.364524857976478,12.73032556192199,-10.83767016318971
2019-08-03 16:33:06.124264,-0.7023145205933838,0.8416127301146715,0.6990994734302584,-135.35721167040958,8.428381521290936,-312.68087402242566,-0.4052722118904881,0.9822445876829831,-0.14666495414902742,-5.540362446514938,76.38846080626102,-18.22343085503901,-1.0178151718780453,-0.021477949818684085,0.20485933447530025,-3.081461105777314,-19.0783625023488,-4.089682883023842,-1.276943515998927,-1.1115737062326967,0.04724566376991351,-165.12209356466218,3.2669726642112176,292.89053905363954,0.026073506084348778,-0.9933448956837923,-0.1718137736962462,4.590491887313028,14.249576004355836,-9.81183383199664
2019-08-03 16:33:06.134264,-0.6338486845544339,0.7761961649793372,0.8308658078183896,-133.3676219611099,-5.6895965020145285,-323.63578792231095,-0.4013944029958163,0.9429349701468844,-0.161834151493387,-9.984777685478496,48.58040921598341,-11.798702210554737,-0.985812333241013,-0.011442495856688462,0.2199742814826301,-4.054974269398141,-22.40729143855955,-4.591851992024287,-1.3185720342903138,-1.1726409000406373,0.036409545785855056,-166.46130918294818,14.68330640753008,300.4583526916084,0.008786727364349713,-0.9919421291418665,-0.15675051901140624,5.304655848067558,17.163151598348836,-8.019366398080535
2019-08-03 16:33:06.144264,-0.6715357954987526,0.7709058257080734,0.88437341572362,-132.03605079043365,-5.1001854685874815,-328.3420372957004,-0.04157346540330394,1.0030204944111825,-0.01793886656553626,-6.52135301574999,-6.208738265330577,-7.312700306065309,-0.982579209354766,-0.0026023451444791438,0.23350021016253927,-1.272896655897461,-24.782376380403495,-4.272066459736723,-1.2924575369912383,-1.2054705236826453,0.021353068643277094,-168.59517158560072,13.222957887171516,306.08744246160063,0.026308808463366275,-0.9927579949678991,-0.13403322359143283,4.889509873129058,19.163882458501348,-6.033406087447999
2019-08-03 16:33:06.154264,-0.6830049556840846,0.7912618666457432,0.9143536826366881,-131.5883911060407,-5.651955518025722,-333.81289585070857,-0.03843337514574319,1.0336412379636608,0.07803089000331824,-3.990778842367563,-26.99409622158338,-2.647283911574195,-0.9801016375871695,-0.013172152805392544,0.19581661172992781,-0.828299600438176,-26.82428925660355,-4.79034253707433,-1.2072293215896686,-1.1669199636952396,-0.0056144529719270265,-172.01324068719833,2.187271543714453,319.49156905460495,0.002981301419268237,-0.9872066699661897,-0.1326752617039961,4.54954413640806,20.00997569930267,-4.591634237537436
2019-08-03 16:33:06.164264,-0.6517485441021591,0.79618230159081,0.88672526804958,-133.60020131330865,-11.523689871349658,-337.79608906556854,-0.040830285784346484,1.0600617310195226,0.10650873467439119,-4.044959088102333,-25.583415732099617,-0.67197248841404,-0.9284617083812619,-0.015746577137129424,0.2183452274768101,-6.448088683550188,-30.44536972989254,-7.804153844855295,-1.1579054084835723,-1.0164203899336646,0.021131050195620532,-171.1102740576514,-8.308049576798917,332.9249863265793,-0.014439135761875005,-0.9887283677983164,-0.13669500753334798,4.733109736689248,19.806457796645006,-3.649883285367052
2019-08-03 16:33:06.174264,-0.6377547525209766,0.7139337630795374,0.8344894808852887,-139.22252560379653,-20.507119080154904,-339.6283619166189,-0.008037385898476612,1.0606171229789518,0.10520938789837166,-1.4137927099340355,-28.375055684119257,-0.6650483858235534,-0.9722808986803165,-0.01087115233472603,0.3213418079931335,-5.440545570023931,-28.325189211899044,-7.86701699932215,-1.140654570935953,-0.9693023766451481,0.033246154739371536,-169.15316878400554,-10.57030544186171,336.39863186162586,-0.01614322970674919,-0.9946456731899744,-0.14007915558956513,4.483730382827195,18.319351680130048,-3.0394360571020678
2019-08-03 16:33:06.184264,-0.6160533059583295,0.6375232650960542,0.8753113065030523,-142.90573167352153,-24.918442954328597,-340.67228569794923,-0.006499494191995905,1.0477050395155059,0.07821997460100007,2.966185886074173,-31.11405804338466,-0.28954024038087217,-0.9700471087760151,-0.0012711335186269643,0.2806859265226058,-6.91484986804792,-28.17881567320513,-7.262213237490548,-1.1902127656488906,-0.9731144601144064,0.06318920332816153,-170.46040726643145,-10.129928071338455,338.9500361417555,-0.017530715468717026,-1.0003766326748267,-0.1443902011518605,4.378918615917087,16.120905117733738,-2.611169597372255
2019-08-03 16:33:06.194264,-0.5182112565229317,0.5411362479267274,0.9039437661849232,-145.5742916379449,-36.69596231703703,-341.4112267592812,0.012222763760099665,1.0258204820311057,0.04284574328899161,3.838009701025681,-29.081784581224593,-0.43464729378491496,-0.9289371708087905,-0.0038674643358353,0.31820574558287607,-7.291269288943313,-32.58344220320143,-5.262017038674695,-1.3054011396241365,-0.9813261924268555,0.11036599531112788,-175.50798731321208,-10.706512644159236,345.0267335901754,-0.016250078865765624,-1.0080171884326166,-0.14768874230648044,4.361925914457882,13.62225569489548,-2.27205361739988
2019-08-03 16:33:06.204264,-0.49068221339536544,0.4763431996009458,0.9159887101325481,-146.3548729125071,-43.62218365156579,-342.18862075630807,0.029308262265828826,1.0164198182524513,0.02017053290236424,3.920979440212127,-28.558825437539543,-0.6209425084653601,-0.9294015010929527,-0.018662748028416658,0.35204438242279307,-8.53095485974679,-32.63712994505505,-4.314141208213967,-1.3120006351630193,-1.022144332552281,0.09386582341821198,-176.90765189029895,-27.653731727882604,351.3071469643972,-0.011485903739580154,-1.0100617708041606,-0.15079498866611085,4.775319225536757,10.000384386941889,-2.3357212991843395
2019-08-03 16:33:06.214264,-0.570609834043052,0.44992986546049285,1.0762365108223846,-141.49423168139398,-19.85813558603397,-349.7060834742081,0.036199644995653896,1.0070490448828928,0.008494089790594838,4.226264373021104,-27.89610891170525,-1.3291281947082363,-0.9118063590874597,-0.038036343562605116,0.4139077524380725,-13.717651060243753,-26.687469863141303,-2.0984551193594965,-1.2432355746726158,-0.9233144166265337,0.13808338974004125,-172.44968337330428,-62.2119203892036,361.02697605720704,-0.009494804176931753,-1.0054526646116815,-0.1522678261257137,5.260849435743394,6.756784931137362,-2.5731028035633394
2019-08-03 16:33:06.224264,-0.3620456747533305,0.4013103681231756,0.7582050838314632,-155.94310035179763,-108.54572163717162,-330.34897017286596,0.031862033154932315,0.975131627376205,-0.0012446002140148649,4.866004794974198,-22.543907410954393,-3.25505840413292,-0.9756182655586152,-0.01339462723301761,0.421572594330043,-16.360870713275936,-22.660135160064993,2.0420176151870812,-1.2126499520751097,-0.8758965804582863,0.15641668567965777,-168.02471854561924,-77.82754821881295,363.60196816870814,-0.02014858750410329,-1.0105265096793603,-0.14757668663263504,4.340312300230039,8.911992196134651,-1.8017733594816376
2019-08-03 16:33:06.234264,-0.3792936578590739,0.4124681963200003,0.7944528653732992,-153.5755008870933,-102.046948546883,-332.9650702341893,0.0018198376338005476,0.9769831171234519,-0.009005232088304898,4.2819236108299945,-9.883219874657957,-4.563444565089853,-0.9221392611469067,-0.01821733318139298,0.41879811820164026,-7.609138597277081,-21.41205892194777,4.157505184328179,-1.1628198717069111,-0.8724598243674007,0.17955182219444668,-161.78799526669837,-102.7146407147085,369.8543341555438,0.0063533631421971515,-0.9801750574511171,-0.17872528323704168,6.9026871139398684,-1.416762788582745,-4.109206085877387
2019-08-03 16:33:06.244264,-0.34290772940578873,0.3389225270184795,0.8127253697817174,-159.43902123511975,-86.87033809872419,-329.3486707329735,-0.01104228560077222,0.9872026385035285,-0.006519261713311834,3.5734878111000037,2.144538854566513,-3.040012612950555,-0.9103676455528715,-0.06413338089599038,0.417125287420493,-10.804435932207046,-27.603203594973564,4.217259555484528,-1.0695831308804316,-0.8957050403913867,0.19909529399750087,-150.25486372748585,-132.7797506989056,380.5127314366737,0.0022155687454827495,-0.9846525842840614,-0.17448504314597785,6.49562828412477,0.7163642783888148,-3.564697363716493
2019-08-03 16:33:06.254264,-0.3465241794495976,0.32974225362715676,0.7434528930000861,-157.86388005837318,-113.95387641731543,-327.17758921513723,-0.0433208259763832,0.9827410094580931,0.005007482604346297,0.9059727008885815,16.121405896214544,1.0695159109048955,-0.9200985213161127,-0.10393872996512506,0.46551822924971803,-28.005996781351584,-26.024174391926692,4.93107300127972,-1.0097915567180606,-0.9101200380697447,0.20605992575065668,-143.51905365678232,-145.653848914841,384.7958642740372,-0.02739474973582158,-0.995451511662045,-0.16000050653003905,6.868882480839832,1.6914105505567951,-4.194885930816491
2019-08-03 16:33:06.264264,-0.3731718560034175,0.35436047660635395,0.7670706446119626,-154.60865462219442,-113.66992482590865,-329.74505878609676,-0.07646763008749,0.9919431484859969,-0.0010923865829819048,1.4182766186909554,21.864507596031277,4.36976182054756,-0.890272444892893,-0.02474613011927084,0.47516773510633065,-19.19931433374802,-17.090962833080276,3.434063096101403,-0.9349752443374529,-0.8765819519098653,0.22003941630459053,-129.83596640512565,-160.9562397314148,390.36696248065607,-0.024757263555071973,-0.9935486850309934,-0.1760442767326388,6.398679568246069,2.51302773662455,-3.8462211720999537
2019-08-03 16:33:06.274264,-0.1363338499968785,0.1569490502957487,0.6630761749876214,-186.7754946703858,-49.14250539859872,-313.245493140126,-0.014959478277138649,0.9888594520850176,0.0451779088136861,-0.9816003559118973,22.17261785410254,-0.2314233919487207,-0.8747321524897574,0.008551935495303465,0.44530049026460083,-11.03019001211699,-17.393904625062742,1.912858051417767,-0.8276130862219657,-0.8161140407445513,0.25553066743506464,-107.71465275582662,-173.31738983639235,400.6111391607731,0.0110704119006139,-1.0004333513953618,-0.13503841306907657,7.915738693496614,-0.8482757781174675,-3.351654665903798
2019-08-03 16:33:06.284264,-0.10976607286843439,0.1464237568819655,0.6605175094569801,-185.39129913384562,-53.18658104638387,-314.71193564701963,0.009800250227725522,0.9915959021751237,0.06996372427951429,-1.97047996565234,23.823696529982236,-1.2881538211226058,-0.8807334665615006,-0.055791532264862255,0.4567177565694983,-18.432772463807986,-15.81925681029529,2.1816408089809296,-1.0595753915487751,-0.8412350522295033,0.18582160595300282,-143.65363150060534,-172.104782848052,386.5794767044877,-0.019397751684512164,-0.9804527798110295,-0.12627629537593307,6.690953781800436,-2.8527981521603385,-4.61272743937891
2019-08-03 16:33:06.294264,-0.08935613742176825,0.11660614281245738,0.602087321472379,-190.38189401173798,-39.891417576025994,-313.5656796537159,-0.1437749261442331,1.0262441908329731,-0.05080469701517071,8.172127915471698,22.2596773443299,13.118504015508547,-0.8636879192560849,-0.1731063897733766,0.4759083287469082,-30.38221061600916,-11.599784213196822,3.9905951558345505,-1.1889488664783034,-0.8641805293026553,0.15127741598134775,-165.17336736839388,-169.78253513223575,377.8382802212459,0.013521384435726588,-0.961818145449394,-0.08759618436320354,7.758533905526772,-1.8004700071009911,-3.8399796877746835
2019-08-03 16:33:06.304264,-0.04633908976549955,0.16019228383689715,0.5581468826441484,-196.32820151483173,-31.604310197026756,-311.5236333271286,-0.07414876370646156,0.9976978972123963,-0.01856425655535182,4.0761684381777235,20.102374827478933,7.291845314906232,-0.8996378594390768,-0.1695735593769913,0.45197363841353666,-32.9227324604147,-7.822040922159429,5.617739086008074,-0.5267369114660873,-0.7329346186860254,0.30606499000879933,-59.954930961422235,-174.93198430535222,420.6552587271662,-0.0807041753941806,-0.9964760226571603,-0.20042857431523314,1.0210037113048638,-11.46124877177417,-10.091403928133786
2019-08-03 16:33:06.314264,0.010190155017850443,0.24505283028322947,0.5651211687722135,-200.7334867466812,-29.919247119141595,-310.26170067986243,-0.07721358767256632,0.9931175472312439,-0.04647702565828421,5.6329806633728055,16.554494493794735,9.034442389359924,-0.8948388591415002,-0.0897605417845879,0.44853312419403313,-26.13790713506867,-2.923704805151057,4.433374464550935,-0.19690037751542472,-0.6482136376431831,0.21828103675413307,-11.988500041119659,-161.89187205396684,439.8263527184891,-0.20884844107281872,-0.9276098110612557,-0.3211204272686054,0.017089141274862607,-7.897086245652373,-12.538870212117521
2019-08-03 16:33:06.324264,0.06393353722693298,0.28448011158300407,0.5179946583572613,-205.9837295946494,-31.356696442586376,-310.386656084621,-0.05815128189233436,0.9904012196527022,-0.07092128308833266,6.56055996206928,10.37644720598529,9.053968909131468,-0.9013876927304385,-0.024175760693758395,0.45138898877840405,-12.345691084913149,-1.1062630726745093,1.762562622920277,-0.4198983328704499,-0.6976655100013852,0.2711150488760656,-42.65237240536413,-168.88317135031167,426.71976992870884,-0.14163079914258225,-0.9193978561911821,-0.25976333440494287,3.3692497917491457,-4.247219415156212,-9.798465905254755
2019-08-03 16:33:06.334264,0.17664016996179274,0.27790509359211496,0.40956112796774796,-218.090026225555,-33.45713612160008,-309.9045522540444,-0.03529421020100646,1.0011221193998234,-0.08174238251374062,7.431721709643993,0.18779924499972278,7.532430598665001,-0.9159757222903208,-0.013760451628588397,0.44207569989611306,-2.2727553272410983,-1.1489701371672996,-1.6506086305458507,-0.3233468350839934,-0.6852324957149829,0.20619650836534847,-27.378239521855956,-159.05347503207162,426.23014818685306,0.03428959287380938,-0.9649360137538908,-0.16184134087192986,-4.429470427714538,-15.318573039870794,-15.23305017790974
2019-08-03 16:33:06.344264,0.24634969471705573,0.20494366656368748,0.3517514505966987,-226.94651275062878,-32.427504464410596,-308.029747715721,0.018798166237738605,1.013269643620694,-0.032187937610763204,7.759463541940563,-15.43558925291897,1.4300637744661344,-0.9324703813449795,-0.04588507890854465,0.4226835596194785,-4.426427825160264,-1.3080103473945688,-3.429780767379782,-0.2235214069268953,-0.6532596369856244,0.15957671672458698,-14.005254585079316,-150.89509259661287,427.87546630714127,-0.017529489418927298,-0.9178953369301573,-0.22992140172123307,-5.8744827261550014,-21.094715345909027,-17.516820235639916
2019-08-03 16:33:06.354264,0.2850698007047521,0.1777956664190505,0.3150471001073203,-230.97346861891182,-32.74774499251697,-305.4726314619719,0.030865692988784083,1.0132174475147522,0.00030679882105054244,6.323121842608789,-18.722989375809426,-3.707178648524291,-0.9455229847189326,-0.08539732175608454,0.4070980093196292,-19.804087513056494,-0.8097451882252208,-1.7427069141802018,-0.21299552425028012,-0.6328312867939576,0.1492273126295593,-14.067709891920618,-148.25026785719427,426.9066882898416,-0.02306186454592835,-0.9409100866590498,-0.19372778926010642,1.86406564174718,-15.015776457652287,-11.759945877834703
2019-08-03 16:33:06.364264,0.3846778985887288,0.19014003215149342,0.2464968573905759,-237.74084349673825,-34.52825300800904,-298.85415972410635,0.0182848983516407,1.011139773494812,0.014850858003207724,4.862372780975357,-16.22019695963546,-7.042193451467542,-0.9504655043447713,-0.12959885586522749,0.39285915842557656,-36.1815137998287,-1.3283800842317044,0.6918266653511047,-0.16766806064671588,-0.6178938338433524,0.11675509322895927,-8.009541401032994,-143.54194880512196,427.10583147602216,0.0777139294981474,-1.027751231790702,-0.1217276068877623,2.042672533418226,3.2733646477693994,-8.090168190615175
2019-08-03 16:33:06.374264,0.4831380760756997,0.23229436077585475,0.19805244118468765,-241.5346769927386,-36.25005441925278,-295.27994456400046,0.011590620232776393,1.00772042062531,0.019797123988251977,4.778639317631505,-13.567080784956225,-8.490740109006712,-0.9458315663354404,-0.0997799929594587,0.4267432725644267,-33.39575765999294,-1.319236659433783,2.0233274838616877,-0.05256109167690898,-0.6223396913389745,0.0746855553707407,-0.1763769766201866,-133.42982713014766,425.525941743593,0.06665077604895071,-1.0214857444909338,-0.1223148781137435,3.4448742262026117,8.477183861009971,-6.097095409920667
2019-08-03 16:33:06.384264,0.5364740634292746,0.24213427692469724,0.13143711693311969,-243.87968541111118,-37.10303774693174,-292.4316727315847,0.0035401996506293793,1.004017931501116,0.012885736335431386,4.850614706401759,-11.387161939698954,-9.188987773277123,-0.937166616150089,0.024839581143086046,0.5031401952738328,-7.718562526858927,1.5579750662613903,2.6856029463739066,0.06384561704133697,-0.5838259706172836,0.023731397611424385,10.792419443751498,-117.70878381191721,423.114218591727,0.05608937350834663,-1.0203223613069206,-0.125716032126716,3.1189698309929144,12.26047785063545,-4.7680613574839485
2019-08-03 16:33:06.394264,0.590899910839276,0.24546731545284536,0.011926943784543205,-248.88182563563808,-33.87887819303846,-283.4141400143354,-0.05695346002312637,1.000634023045844,-0.020942470110733087,4.960365855473244,-2.452623091698126,-8.543005841979092,-0.937323611550118,0.017603527658553088,0.43578828811624365,-9.7513750809259,1.3875461331414118,4.453036012869769,0.1604661001400018,-0.5343984991738382,-0.016406942435444976,27.849503624681418,-113.25288871648037,420.16025586252493,0.03086454069441628,-1.007088051677926,-0.13265440161940018,3.2430921740789524,13.40550718498048,-3.7307210451876864
2019-08-03 16:33:06.404264,0.586553529387402,0.24033893015433003,-0.08529013430832363,-252.30685402043477,-27.595262906848912,-276.6131386415304,-0.07191242341300716,1.0033124615258195,-0.017418138555668407,5.165650610364726,-0.8365536437888064,-7.914876804423145,-0.9392014862008892,0.016425744516207427,0.38374756167159996,-21.894052668471474,2.4330064926597585,8.653614611624143,0.34094033203495505,-0.5135141166579059,-0.05685174015421521,37.024049395675576,-122.28903070669499,410.08865335598165,0.02604734019330521,-1.0031300712008242,-0.13720876543564345,3.565220767876291,15.328551979394142,-2.7448187674269158
2019-08-03 16:33:06.414264,0.6079687960592971,0.23816662846662065,-0.13873903299374374,-253.6556805617846,-22.443292468813656,-273.42198095145613,-0.061999473959831984,1.0052005914090494,-0.046918167461411024,5.627574635277529,2.3310656654956112,-3.6817647798307043,-0.9341509634847718,0.006046959642025547,0.39975889456642466,-20.750082266794298,4.39434041743204,8.955003208471506,0.36612087073298827,-0.44772505603746526,-0.0945311974949522,49.40418165209324,-123.43309240480951,398.6026434457078,0.0446914244354428,-1.0149340945945573,-0.13432451609424312,3.96427686038183,16.974199451225065,-2.398616866293995
2019-08-03 16:33:06.424264,0.7251155589558028,0.20469831333631458,-0.29109013691375124,-254.81557114201354,-13.200237930814259,-266.6047215459702,-0.06028174989452791,1.0014327360656923,-0.05851519500367537,5.699188752362336,2.8096781960539796,-2.0865026392320636,-0.9359491527061822,-0.011274964171600513,0.4033221288091341,-21.600108691795008,4.791530242670005,9.027458256378653,0.3806052637337677,-0.4719136499353265,-0.02828715465631883,62.08304868672141,-115.96904395784804,380.90483597925333,-0.0321446454590491,-0.9734940839492565,-0.13940637372225267,3.2298414763457592,14.008798596001903,-0.9596018107481685
2019-08-03 16:33:06.434264,0.8907501929727133,0.14443222549351944,-0.425820806817574,-253.58560225391582,-6.665842890606865,-261.3000700285155,-0.048434972798977405,0.99579861587567,-0.0362422916358488,5.54219163431883,2.651152593800611,0.6222894934921663,-0.9329399993724525,-0.05122425140571422,0.41414291856959584,-26.821176766319844,4.1465005776457415,9.325042705574573,0.46219376490116953,-0.5188235228570437,0.11447603436440133,72.27569719177743,-108.30532183816281,366.89031159747594,-0.026293216157861874,-0.9821974793847514,-0.14265087535826831,3.6015376510952906,11.678520460754916,-1.6540192879859215
2019-08-03 16:33:06.444264,1.0657185755810694,0.06118264331266246,-0.49746156433468824,-247.95672198225478,0.3308253506600315,-257.7621143502319,-0.024400126625227985,0.995976704264362,-0.008859993418781617,4.697045241442508,5.828847053968904,1.6815771243688418,-0.9197629091169607,-0.08667400065774084,0.4065757298019968,-32.97350271565481,2.7555479827953855,11.385222279855105,0.602427617307838,-0.5486511433870614,0.14146663829940787,91.07481633469229,-102.02049874343572,349.61739168108033,-0.02902502621091165,-0.9819938054273356,-0.13996712100087938,3.177049089492093,6.798125394915155,-2.1139781626325327
2019-08-03 16:33:06.454264,1.3236853006392089,-0.10113729034518712,-0.5472577990769093,-230.24293633249005,13.44351460775582,-244.3187645459243,-0.02279851036597913,0.9969469279199067,-0.00847815821992215,4.919828553076135,5.001831809391049,1.834580092931575,-0.9260084240647788,-0.04936109645305221,0.3838086077773823,-31.903384880259985,4.142269613756726,11.2110788893841,0.6875168341804021,-0.5608275239345049,0.08997397874334383,100.57084771897142,-104.00883456950132,340.314603209805,-0.0206044434366276,-0.9884562597033524,-0.13480895697697123,2.938144572858458,1.172533508827751,-3.0988611317877828
2019-08-03 16:33:06.464264,1.3458388762390343,-0.14789678524691396,-0.49802484577482226,-213.06234137635207,20.354872985880203,-227.96163499557233,-0.031321755656692166,1.000415474237816,-0.04392542827805029,6.58474079369803,-2.377264535984013,-0.06611999258529035,-0.9410565298824759,-0.03519976659497839,0.38058815728564194,-19.313204696907185,5.6630883229128886,11.25754416937344,0.6793381374022878,-0.5470359231492525,0.050571272895489024,98.17043434774179,-108.82024866795719,341.1611470100797,-0.012689547494521121,-0.9914569043424684,-0.13305529299438923,2.8658632538719186,-1.9834566063905021,-3.8113714821630005
2019-08-03 16:33:06.474264,1.2962616723098463,-0.09524708168126335,-0.46287899976409097,-199.9753116654547,23.397950039264455,-218.24838557158955,-0.018286154123218913,1.0079427540619241,-0.04945900150281641,6.191284673124899,-1.9292556724102228,-0.2931789922940877,-0.9556171560603745,-0.06369297702266181,0.3681366456859007,-16.602689615013926,4.656634368457802,12.73572173558586,0.7209713528699415,-0.5517209039908538,0.11940179902200952,99.18217803050082,-103.79902823817784,338.0066195065363,-0.0015389200235827495,-0.9950405502278534,-0.1300304847264238,2.906571533125426,-5.109831759190013,-4.452583066831763
2019-08-03 16:33:06.484264,1.2594790049643925,0.11438103110635177,-0.3679510306984903,-175.30084003248854,35.57692509797216,-200.86432302742315,-0.02933227673553215,1.0075901285858826,-0.060676104393649385,6.174237614885577,-3.791534502960206,-1.020637258875803,-0.9646245479837783,-0.08646100404309763,0.3262147220644917,-32.81270159075854,2.8228078578318088,8.500613808460768,0.9229654228423917,-0.6124965183747837,0.3604776721533829,116.13978314789865,-79.74327512875342,319.7476979148204,0.009093732214301058,-0.9985806868323948,-0.12910173780609444,2.78062096356542,-8.160979299520378,-5.031027556347612
2019-08-03 16:33:06.494264,1.2641159636070638,0.27666672795453645,-0.35920316178642775,-160.46154711447642,46.71061388160072,-191.93826320274636,-0.025782339517380078,1.0038274200382296,-0.0636736369688075,5.440482044662572,-3.6043094509054407,-1.7977066295160518,-0.9683769446035456,-0.08806821111587573,0.3231031273996262,-28.011130298422966,-3.078094885450664,6.9540572899693345,0.9972509379395031,-0.6693873480932434,0.44820783082008414,124.89315667770117,-69.88381473614538,313.93056368721733,0.020618471892756594,-0.9988087717428136,-0.12725798020300658,2.5316194525383775,-11.160788411903228,-5.42503776030801
2019-08-03 16:33:06.504264,1.3524227827678277,0.2859277064218212,-0.41656945609901513,-151.64705975192342,50.83351151335154,-184.63359301271197,-0.02649906060252103,1.005709728768455,-0.06274328372934021,5.342272693247643,-4.058739937358849,-1.8792240539022833,-0.9632393618697017,-0.07871207000885706,0.3097225189193437,-20.480317415430868,-6.208175474754713,3.786414963503954,1.1883915214271543,-0.7088044623593481,0.43748152074875873,138.89983891165116,-56.70184251625609,302.69992471165045,0.037021488785489505,-0.9942231044236095,-0.11657592329583939,2.5625300288266644,-14.010591925356236,-5.48292858583701
2019-08-03 16:33:06.514264,1.5615230402672713,0.20889387719532107,-0.5090369212708755,-129.45445609323232,53.81378212845611,-168.1505584677729,-0.03605532944785361,1.0161627083063596,-0.0594809875293765,6.193367417454753,-6.341565900358033,-1.5146682714544277,-0.9484264771193185,-0.08386471351869872,0.27774114219837576,-15.263076617834823,-10.08310742259715,2.197545289443115,1.3634500128110414,-0.7267289264444035,0.44324405439359194,151.98420913807024,-45.464821480990345,292.5471776419674,0.04555463010739361,-0.9937260336696394,-0.10879964040742902,2.7314387264782947,-14.549598605950019,-5.3105106584564155
2019-08-03 16:33:06.524264,1.644305029372359,0.09582839534930547,-0.5495075442840679,-109.75116648916847,57.53582899745632,-156.37116914808647,0.025420560408584113,1.0039914722360987,-0.04806979703036228,3.8945999659163935,-5.040788142571651,-4.774328356540156,-0.9308255920887003,-0.07068201634685978,0.2848385014683489,-13.078111602211607,-14.428927561876858,4.0640226197784575,1.3773978664520903,-0.7142738038591985,0.4320553456962334,153.71168148799285,-45.444618641092205,292.2693781411448,0.05395836276208564,-0.9973059899373338,-0.10670371409391144,2.3191535440869546,-13.237024256613719,-4.115534286662971
2019-08-03 16:33:06.534264,1.7009858320888556,0.06951377078084124,-0.5664898456443438,-94.30851941967879,61.48828494909074,-150.51801516826762,-0.0009105338817107719,1.0063155779177164,-0.0579097143233632,5.144600654017396,-6.9405418884558845,-3.393327033752372,-0.9093770656832977,-0.025429993493017757,0.3444953871918835,0.9538927009753366,-20.389000565171365,7.349236838988508,1.4122276288381654,-0.6741338034558577,0.36038218170996217,152.21216216509112,-43.07354640083256,287.0902227921007,0.04402183992939551,-0.9885607103986255,-0.11318973477805219,3.917508068569606,-17.266595367834725,-5.714111532805626
2019-08-03 16:33:06.544264,1.8382216791418509,0.0896980525828718,-0.5339727153087909,-56.83945617725008,66.8745742382002,-135.4670695525059,-0.04544013485662132,1.0068312540105597,-0.03711560991079858,0.045088684343067495,7.349472999623721,-5.301353774578523,-0.8800111134233605,0.014687467945059837,0.39081642186275767,5.835932673101505,-18.77374029705147,4.421479001940658,1.5847340992067085,-0.6034681642476553,0.23055522760765015,152.35947124642001,-25.85256305813304,267.07280056154093,0.04755885409988636,-0.9942699102243037,-0.10930452458945308,2.6749455241841376,-13.29079980852272,-4.129505053336892
2019-08-03 16:33:06.554264,1.9293530893314998,0.1292230075882755,-0.5007780181798746,-40.579226173100146,68.46474523517453,-130.7332477814162,-0.04053747032122878,1.002007301305958,-0.030797346346932125,1.4682853393908388,4.563925396937298,-4.542904910138117,-0.8840820283588983,0.03982261150630925,0.41170824467636236,2.75303705549703,-14.059802388573223,5.8595994343135995,1.623919169092683,-0.47631146544512337,0.26823848085518975,149.55502504223125,0.7936163175514012,249.64706563288328,0.049566504193724104,-0.9971038112306866,-0.10755556902813211,0.37835670150737255,-7.017255556090426,-1.2951193279423392
2019-08-03 16:33:06.564264,1.935912282141464,0.13568272748188728,-0.5015130382664965,-39.81145674645341,69.31546031519619,-131.41638861559932,-0.04359607175074882,1.000319933598386,-0.024658277925051233,1.2269670739893577,5.705091810148547,-4.475412123416694,-0.868808132108418,0.11073532137868079,0.4133422484248162,-7.181173991921799,-9.964654892887893,6.533162258218561,1.7455535965394304,-0.4116765636697906,0.3113003878099064,152.5421766972412,10.176643514498789,227.73903804936873,0.0407079974355976,-0.9913694180044397,-0.11109495287045688,0.3824394050373225,-6.640787784059937,-1.1137456446736376
2019-08-03 16:33:06.574264,1.632468692944673,0.26048697808268106,-0.14852524496859035,35.76721908124452,71.59406747023836,-79.79395149992689,-0.04633600437207256,1.0007509720674128,-0.037063901540143704,1.6154041981220173,4.970851375449219,-4.409563056154395,-0.8951692977312007,0.10751293818304081,0.48448137276850645,-7.333091533274017,-6.6691958011925205,7.190034147480228,2.042336773546289,-0.41415007389022007,0.309947217677006,132.2874803239805,11.583205936478246,201.34105920131128,0.030275378321027526,-0.9941835788853266,-0.11315817260072966,-0.3123170665162112,-4.699746327593839,0.06574977226964479
2019-08-03 16:33:06.584264,1.6058791357771136,0.23165138515211986,-0.10401991156738043,48.765447236877584,59.73111783653285,-64.70959351546094,-0.05081515179916869,1.0002235169462308,-0.04516701855747625,1.8561001829695594,4.415140878475058,-4.360181236512868,-0.8955202335865212,0.07262742219935356,0.5300705081731028,-15.22713524262112,-1.616805213545716,8.64490960066462,2.3360084309401903,-0.3898896989780016,0.3350256142169576,112.02164415577995,3.8780986575381178,170.99313935561142,0.024964501227315476,-0.9943011689765453,-0.11837456476427816,-0.6498652277075975,-4.336946029765273,0.6439112259221387
2019-08-03 16:33:06.594264,1.606502115358182,0.20440109956439192,-0.06060177357530715,65.64845654435685,43.12157910937694,-44.38616369317707,-0.05187099131718277,1.0002758002581353,-0.04725786743901783,2.071849363618278,3.646809909753201,-4.283438547149939,-0.8998065162685841,0.04202213516019063,0.5313361458811211,-28.980916007278424,3.8992654295557063,12.290142160086248,2.4407021271301685,-0.37423711569984386,0.33343799161123305,104.53224893880196,-2.4574915565155755,154.64180047453056,0.02654890740407228,-0.9929590102396199,-0.12554794746583117,-0.900093928796792,-4.3832275974611,0.8928083761777839
2019-08-03 16:33:06.604264,1.6611101505138852,0.1357836161758293,-0.018164235117064904,89.22110530125457,4.168054756177472,-8.05628687311064,-0.051946414592501926,1.000449324890038,-0.04787665816927039,2.251309250196916,2.959259114023827,-4.164733434738556,-0.8896505107451667,0.0012070251041948893,0.530774440941879,-35.91439276375902,6.56046217181766,16.122226275694707,2.556628313180728,-0.35964025109906916,0.30094722562534243,87.40345536489367,-8.261513719138408,120.67547139563365,0.016513166689018356,-0.9908985979238923,-0.13056853755882533,-0.8413854220729134,-4.4209013418098895,1.1538814170333513
2019-08-03 16:33:06.614264,1.6262707286033011,0.15351477628625074,0.020182394575126744,101.83908124485251,-20.906197018657494,12.702978305595328,-0.048776001732655484,0.9992129486882544,-0.05059000204790062,2.368641835245835,2.042248603874883,-4.11838467349826,-0.8242498922384432,-0.03488593223461095,0.5326033878209331,-35.07107188989953,5.173786409913472,13.97681766217951,2.5881494871425876,-0.3280462979049982,0.20873426000805761,65.91898024231573,-9.18859357863765,86.65157202544415,0.010806533398486477,-0.9898788296283362,-0.12556738986787966,-0.6693319387469282,-4.8081406389201575,1.1993777706481874
2019-08-03 16:33:06.624264,1.5680105217769382,0.1880798816699544,0.0346601472512202,109.57446795226807,-37.28309971750539,25.84378522897422,-0.039430271091715346,0.9982059336690675,-0.05212269650501432,2.3693775636368075,0.8283762620221051,-4.277328075705132,-1.078404377060025,-0.07387623627359347,0.4800690829830526,-65.4553586629652,24.653459345289022,36.0029393053545,2.654366284004242,-0.3110430501801092,0.16474361961076878,43.0380929860726,-15.100497802742277,48.24123448695958,0.019864217721336067,-0.9931947206649276,-0.11870089039876017,-0.7603621755085298,-5.47134339688017,0.9876709869164471
2019-08-03 16:33:06.634264,1.6290853968029964,0.20505852099209904,-0.05736224077351811,130.54183457517837,-117.61825767848103,81.57055291761893,-0.03311824365517773,0.9991312567131961,-0.04983649280934145,2.1886338373780934,0.08244815456027532,-4.506558068835496,-1.0669097218429069,-0.06264946699144705,0.5077843750756168,-52.94838924002231,23.387160898517816,35.227564514853526,2.687835777815523,-0.3384988652591509,0.1879813513922961,21.111280217194025,-31.93428125132627,2.1310796452652574,0.02760517897468734,-0.9987478933932055,-0.11963154306482221,-0.6341188508815707,-5.883615065029009,0.5631225634400097
2019-08-03 16:33:06.644264,1.7893728920956056,0.16454642713398693,-0.11253991927885779,134.5014409823106,-140.25805348801214,100.65186394356677,-0.043726517445917656,0.9973590090889924,-0.05286524185004096,1.8371730069949006,0.6205903740612807,-4.6422420682292325,-1.0266164286481727,-0.07690240124710489,0.5427333199572911,-39.539791494514084,22.73809074620642,35.33827381270732,2.6449366417110465,-0.3631805822380768,0.1702106094845522,2.886763217604953,-45.082297060987884,-46.20039939365721,0.004917831346276135,-0.9960898999106712,-0.13353340531938515,0.2123908916197177,-4.970997461221882,-0.029819488977370856
2019-08-03 16:33:06.654264,1.8488629465298172,0.12957314165112685,-0.11765521218260139,137.85107493483315,-145.93032289910497,115.63340173228046,-0.056878744213368075,0.9968599534177875,-0.05410457343579238,1.4584276392616227,1.6425917323043342,-4.676557175293788,-1.0179728008435138,-0.09692595818981767,0.5569288575529904,-37.63252140037311,19.11356319222928,39.74287619457852,2.4931622067799095,-0.306685415345366,0.1882334623036915,-11.954236820894952,-38.831858845646984,-91.2147442808511,-0.01701411199965448,-1.006422682065574,-0.13636383830632492,0.682993932131334,-4.03951293783563,-0.7521274087204681
2019-08-03 16:33:06.664264,1.8637308337549294,0.10113502669179242,-0.10826349044931537,140.25360924946344,-135.72225842277777,138.17790137299932,-0.06452388424919758,0.9970189120514462,-0.05360666995118425,1.2116059452524994,2.3255176794494323,-4.560236149034779,-0.9849799422093326,-0.09634102923441583,0.5627272845434721,-36.89373345957926,15.297083593645914,41.980641721483835,2.2771233214659863,-0.2908994721854739,0.1883029037881898,-22.287617744062096,-21.57921484484004,-128.11527147020806,-0.014800173379954606,-1.0092169314607407,-0.1380444158993934,0.3055537660917802,-4.325164362452021,-1.862652121198137
2019-08-03 16:33:06.674264,1.7523086654748676,0.1295683477998954,-0.06794288906232786,140.46446755181125,-109.82186641368529,161.33224813746435,-0.0677513880463366,0.995150356245102,-0.05452655879115755,1.156723819594409,2.3154491629795246,-4.344439328687906,-1.0088048571362018,-0.020567205138268253,0.43929353043754304,-27.929301868677317,5.373676151185587,40.395897533287915,2.175085755952072,-0.29327670069772116,0.18814401732174166,-28.0559863992383,-10.083849458364138,-148.8159329808676,-0.01436777020816742,-1.00750068176558,-0.1428256946575043,0.14804264285153226,-4.5955978716551575,-2.8870671146114666
2019-08-03 16:33:06.684264,1.6894211332478082,0.1591522946047681,-0.034205107649511124,140.65436282024817,-96.84676029849133,170.2149098577858,-0.07474794230046986,0.9904447582726563,-0.05715730002465971,1.1752335454294518,1.5648503713942095,-3.733119140384768,-1.0430467106541652,-0.008592148288017158,0.40837023831192165,-27.489299290749322,2.4235647020323197,41.794910236682135,2.0625324567042136,-0.28157082830941654,0.21641514475388113,-35.840608934371346,5.410957818397637,-177.82727913824777,-0.021983065453513247,-1.002911055001012,-0.1429827972548725,0.6442427175574551,-5.294111306846805,-5.179649610809198
2019-08-03 16:33:06.694264,1.145674764651324,0.2638347871076588,0.08232797462778224,126.79996661035418,-42.38416137348418,214.3833383538918,-0.07857099180555183,0.9908108790764824,-0.059561313664520096,1.2755774142012324,0.17296478762639328,-2.881843855934087,-1.0134343746415824,-0.05165249054465862,0.39652746023148366,-37.44683837183221,3.6861229336200614,42.11405637694441,1.901424996659453,-0.2929302542466852,0.24059249990614612,-43.6041665164559,23.977594464004945,-213.08043357560575,-0.010540584378316373,-0.9972766370178777,-0.1348532357545556,1.2959689030209085,-7.1021804155746535,-8.67264784152743
2019-08-03 16:33:06.704264,1.0934339860063538,0.23777334150035048,0.09215603197720384,123.2262641469402,-38.86085985955369,219.3998330287058,-0.0773388216712392,0.988463310262876,-0.06332768213592195,1.3951530561161376,-0.6846964993850857,-2.5051670470964176,-0.9531991077533032,-0.02555727218939499,0.36944550217449706,-42.05397352290372,3.2450266119795974,37.60724827791093,1.7276522522014968,-0.31866056069534743,0.2807088544505522,-47.52183123238993,41.055805915053796,-245.82018372737076,0.00688219469507282,-0.9885175417591717,-0.12473119643781551,2.355156518795956,-9.556187371743517,-11.630085864559138
2019-08-03 16:33:06.714264,0.9770564821692408,0.13686961965853323,0.07595766692722448,114.57026890134007,-40.30276856701415,232.7195702690723,-0.07620070899227441,0.9785260985712874,-0.06687558372168155,1.5590253487072845,-1.0683314437821265,-2.4225724268756452,-0.9417228134117754,0.0083127041500769,0.4026274815501213,-37.36672731191347,1.966693383273534,35.47960448958172,1.62300924642018,-0.350374452296712,0.3090023182207295,-48.17002967457722,50.710538469630976,-266.4754202964279,0.010312358771450486,-0.9969031633517866,-0.1265284913243224,3.279302655955644,-11.280443649933055,-13.564691200765742
2019-08-03 16:33:06.724264,0.9443865427683662,0.0639634522626656,0.0549980222328131,110.98557840066427,-50.180432977490106,240.5775390153894,-0.07815492089616564,1.0062346703399652,-0.051784362463140665,2.221046208211394,-6.293809118938616,0.5794496409200336,-0.9941601705221025,-0.13963493943127064,0.42403059316795655,-36.74419579740824,-5.879133632690185,43.15719682855885,1.5097882858787453,-0.37790508404801915,0.34282986428532725,-47.25361988557954,56.324519621352586,-279.47115576630347,0.015259518131422444,-1.0042593784401825,-0.12829787280605018,2.8458984562691585,-11.375077138300913,-14.577001368392185
2019-08-03 16:33:06.734264,0.986449267908443,-0.08370250206489963,-0.004698175430018348,108.74662539656217,-94.03981932832484,256.69711476554846,-0.05146948887882081,1.0179344280949874,-0.042154883080153555,2.3110140673297908,-6.477544108759156,1.7171490392935602,-0.8866085755942552,0.12235294639097123,0.4693817218174438,-17.423984877830772,0.7556433760552455,30.19881610381201,1.2998206401879604,-0.4414515044728895,0.35251661286602437,-43.28818038178949,64.89043576171485,-302.2484338395884,0.04581314899153496,-1.00439104209415,-0.12963942741710752,2.7444781484224463,-11.646118699769042,-15.917193944106609
2019-08-03 16:33:06.744264,0.9472974143779094,-0.06372147042470085,0.0003365150204881536,110.87006466008363,-99.16890264857878,259.6976745275478,-0.03696271399457535,1.0140307980139915,-0.04055407306277758,1.7951159693535592,-6.061590509722915,3.28991960480124,-0.9684121188893838,0.030634083524542506,0.40550498449534816,-33.793230266567555,-0.35478793696317706,27.995478265043754,1.2716556077659382,-0.4740557948340922,0.32131149646948703,-40.640199728970636,65.23843939954324,-308.7298842503846,0.0838180971019053,-1.0023470161756183,-0.12733589558392122,3.033089463755997,-10.740899965965692,-15.814337161642205
2019-08-03 16:33:06.754264,0.7995091298299608,-0.039064678848461834,-0.02409970211314278,116.15366370203635,-115.48266579027215,271.31603866652057,-0.03368718319303113,1.0086803124483121,-0.04192395501352415,1.3755923393346638,-5.1643206495482,3.7519241154687695,-0.9653241497129967,0.019532215384305086,0.39565596729178354,-42.01962045786921,2.4732738383460315,24.418649674779875,1.2386603169405364,-0.4439102655518911,0.29327936328367005,-32.87821921782058,67.42423155654262,-326.1658472381195,0.0876529661842764,-0.9969465569031886,-0.12201009609824047,3.4564946177904017,-8.559421291790986,-14.297405352671285
2019-08-03 16:33:06.764264,0.7202200611514603,-0.024359042266993574,-0.04726916011361178,121.40321315849083,-116.70697499246518,275.3719467762024,-0.0283786437422131,1.0075650634519957,-0.03976679749997469,1.293810903150354,-4.727870596933724,3.867510630078037,-0.9346138601438296,-0.0629424032280015,0.40146019799161486,-64.69964618439573,2.4885709547208985,21.853892117451345,1.1554969175322451,-0.41892477051542387,0.2899892339623283,-24.974596419020706,69.232329007815,-339.959380364809,0.09059043180692006,-0.9974627061502596,-0.11565442856732697,3.7470952007326788,-7.2085012163474484,-12.603870816248955
2019-08-03 16:33:06.774264,0.6460070266215949,-0.019571311882207718,-0.06161390298810439,121.96951635334851,-116.95065733631846,276.8612523923249,-0.022623954486380073,1.005229403444501,-0.03605597974844,1.4312998045655616,-5.078175369083674,4.036605489634143,-0.8826155502695483,-0.03706926683268153,0.4614763183457162,-55.49927093423448,-0.5390721431757256,19.716299199465414,1.0477638276794963,-0.4321518295456344,0.3505026457799082,-19.212747479451046,72.36052828475157,-349.5656412027401,0.08700160198972894,-0.9995812211573002,-0.11541873991040545,3.51984266514866,-6.6678374289440505,-10.5732908162592
2019-08-03 16:33:06.784264,0.4895175114732823,0.06013212278493419,-0.08814152084718589,117.7509166339893,-121.53982627967393,284.59227503205915,-0.015353448318834458,1.0031847642122738,-0.03270750256919326,1.3092778805853498,-3.460666892388248,4.329614017694768,-0.9125243145357105,-0.012333217153456689,0.4732040042961019,-41.43790149282951,0.2796731713647256,16.767311301442117,0.9313733951018667,-0.4806862436887309,0.3412017752005233,-15.867031140151315,74.2467716132523,-355.11421576277183,0.06873557528355037,-0.9962821051067856,-0.12273501636595106,3.2413935543757235,-5.553287016307606,-7.325408599191191
2019-08-03 16:33:06.794264,0.6595313687439228,-0.17764724132579696,-0.08113531808993253,135.75139034357125,-94.95059696869359,265.3250723625233,-0.008314091042272431,1.0111221641324937,-0.029090855903473222,0.5794620996633654,1.3568580233955814,4.020390878018564,-0.9357254966457742,0.09462399828715713,0.5532671676023754,-12.329488208020216,10.433116358519289,11.956609254566409,0.7255131025946366,-0.5701153808646675,0.3049486328846788,-8.084518672374085,77.20359990890006,-364.7330169837738,0.05251719148449966,-0.9941603988015731,-0.11913317697717297,3.4816555047897757,-4.894813231791152,-5.498459959182387
2019-08-03 16:33:06.804264,0.6287138403657926,-0.11161984881320536,-0.15915083500369837,126.78116937048401,-81.44022065322324,266.2823049530864,-0.009799635382650542,1.0159659568136332,-0.022807744834106993,0.434131896141725,4.901067061555349,2.792904743339202,-0.9291171565697712,0.18470393029897397,0.6283199527734642,7.815479526121479,17.68386759355305,9.117137690214165,0.6868355116006952,-0.5789128214733307,0.2855744333137219,-2.114730114016303,82.57554618421257,-367.3378871986984,0.0416782757030944,-0.9906273813023632,-0.11719135163012603,3.3410569192362027,-5.549264459828767,-4.1253370865527526
2019-08-03 16:33:06.814264,0.5556084472167131,-0.026877931793264434,-0.1651036167933196,120.74753035217185,-93.9960698507341,272.5748811550197,-0.020391175872717743,1.014226562948267,-0.028339639073116117,-0.11924930164489017,7.689932572287821,1.508726687397166,-0.9031460546739992,-0.010460615541460827,0.46608177751257385,-37.62524701837164,2.229575419630404,15.475443088317858,0.7130348372701943,-0.5570073291395955,0.21972473403202208,4.513489482492644,87.97854789034925,-368.5082790249869,0.027420884472765833,-0.9860330667965648,-0.12181724304698614,3.2428951302263482,-7.223502661263939,-2.7587213753817768
2019-08-03 16:33:06.824264,0.48066142197868206,-0.13454297507156618,-0.21089425109105103,147.60262410608865,-134.89010352589273,266.9831758002922,-0.021205418058222337,1.0131458914966753,-0.029840926826718555,-0.2443259698878863,8.349043462044053,1.1608526735258027,-0.9407311757132556,-0.08597981495531218,0.4384073789214737,-49.351218470661614,-1.7116795753067378,17.294960294882504,0.9337120558852249,-0.63232118311016,0.39578507416637215,-14.196912842649537,29.2931271100889,-368.4013919872115,0.031041527525965167,-0.9936658864236986,-0.12082831238323831,2.863210773978469,-9.15186788337682,-2.7461862433329065
2019-08-03 16:33:06.834264,0.5246370961657078,-0.1233997700856898,-0.10377081099414678,142.31967531606205,-119.85447443255548,268.1685923722806,-0.0204590098830374,1.0103589169949545,-0.03568444183253939,-0.09255716382543473,8.709956548382964,0.221028573226472,-0.9554195835561602,-0.05480020625995861,0.4868768341789926,-33.627514353623226,0.5414209760905697,16.78069703537134,0.9848044263754411,-0.6364517039277453,0.44125603699321564,-18.784200360025665,17.30102447587393,-368.13550755533936,0.03282181206507066,-0.9945699926244463,-0.11518796777078155,2.668492455563639,-10.235145292290273,-3.974301194464443
2019-08-03 16:33:06.844264,0.49985307035052484,-0.09021125579212462,-0.08918249329966045,143.82412978239233,-118.09441595989368,269.62973156152196,-0.024673463588569273,1.0064688927181353,-0.0446174834445295,0.09195110058060554,9.541455734286982,-1.383407951637128,-0.913554111739389,-0.02014265663681091,0.5112711231219638,-25.93230184292963,-3.2454704102757694,16.830828496039764,0.5263883603440982,-0.4085236577784331,-0.024337023942955487,30.534768717653286,159.81231487442665,-368.71288975107086,0.0381019442689301,-0.9973168817193304,-0.12377425480924276,3.1406964115367906,-9.3895285577805,-5.507611046888544
2019-08-03 16:33:06.854264,0.4047857851994002,-0.0654098576000468,-0.09479905451485635,148.7984993694086,-113.18968346518706,269.1432903150264,-0.029854481617175403,1.0060179496834807,-0.04356534623070376,0.22610839403013738,9.72341725162749,-2.097994769991236,-0.8928373445406753,0.04487778953393465,0.49810574811233027,-25.70157202130401,-1.655134834626386,15.852496709516942,0.4560663628251987,-0.5131726891473039,0.11786877080047835,25.560579754115437,148.58178223533545,-369.0380817047883,0.045133886159792476,-0.9977829964128145,-0.12549788045512397,3.111951506768417,-7.699785984186526,-7.115293018362399
2019-08-03 16:33:06.864264,0.3033399441559423,-0.06337323553306813,-0.10088654224183113,151.1490073850259,-99.84001047969183,268.8916966671621,-0.03142326356017924,1.0070612356223276,-0.04025832200095295,0.42901456890661105,9.718177847306954,-3.274292402249119,-0.8927228154938183,0.05506578436968803,0.4648958195061378,-23.27486789837102,-0.08865404461493082,12.38152349913563,0.1320713211678498,-0.629603525125735,0.13439273456953407,38.25501769400993,171.4678902909198,-372.4098215669172,0.045519580278740854,-0.9941448788743787,-0.12678033196381103,3.8051171535440735,-5.544410173520736,-8.72954653760796
2019-08-03 16:33:06.874264,0.2760737996229523,-0.06535758537315407,-0.14463427824646277,151.76917864863816,-88.80085422812564,268.0229583412546,-0.02500500195909043,1.0068172325449118,-0.036323160707308975,0.580297538748096,9.539313216140577,-3.5561347412939086,-0.8873986508376084,0.0367528840889914,0.4484182804389124,-29.28782130486986,0.4838603999672233,10.621011867232165,-0.007889076274347385,-0.706299892325326,0.04265617283586944,50.66848879449061,173.027162920291,-372.57363214383054,0.056081740510481745,-0.9960607897595002,-0.12010518843830971,4.086751257133937,-4.070541677677065,-9.997258116765188
2019-08-03 16:33:06.884264,0.23851043397067317,-0.05447503565391541,-0.16879451611993226,152.456960182503,-84.32933354650652,268.1748996126193,-0.011213443957701096,1.0043457387137014,-0.03188842705345979,0.6275759272020784,9.163178028246517,-1.997651939312294,-0.905376996223823,0.03541672657080555,0.44907980534530656,-32.41803039923608,1.3719124436473582,9.780878802705287,0.06838687139491646,-0.6379572066180015,-0.07815503106118817,64.25952940922707,171.91131343609624,-371.35634050127265,0.05222414196605594,-0.9924097068363048,-0.1193955841536262,4.639771229921972,-2.3962592609749875,-11.349278020730646
2019-08-03 16:33:06.894264,0.25837403304890766,-0.04078760698663575,-0.18662833885565522,155.61444371034816,-76.50951342031722,271.77055709264175,-0.018925608364406533,1.0052599177099741,-0.03284080724787205,0.7719265203308056,8.884414451153617,-3.4331782455543625,-0.933075812104678,0.042246211044555206,0.44797818181826304,-31.79860708640671,4.608923246202969,7.810596694947488,0.14757036405545504,-0.5816432388984413,-0.11215444642405244,70.90497152035488,171.64954894151663,-370.78771030837936,0.05602444462322235,-0.991554242676773,-0.11818607881789378,4.922107952697816,-1.1580646774509364,-11.928092732227853
2019-08-03 16:33:06.904264,0.1938084536226998,-0.043369957107107115,-0.18084365218729942,161.4400133847672,-68.26771888677176,278.2010618561536,-0.03334920258364652,1.0107615961955612,-0.04100031922655171,1.715730148705537,9.403044598308535,-8.307908435651456,-0.9426958215651167,0.05645110336688444,0.4497691903681458,-33.34675954024353,6.548727022360431,6.5219165615881405,0.11404696707203586,-0.5237847575296819,-0.1490426283841469,84.74903477906945,184.45267622023266,-368.006655652177,0.06184468155313614,-0.9915779917792076,-0.1131033336960809,4.745874892403074,-0.4625237263373992,-12.161468567945512
2019-08-03 16:33:06.914264,0.36333333940110213,-0.16713835477035166,-0.23695646540601284,150.30960549094058,-76.7390126589205,263.6010771914253,-0.04905348223545265,1.0031082154943949,-0.044623760674140055,1.4329223219709113,9.279078250100147,-8.909464302016248,-0.9905040628297066,0.09586126146638739,0.5195612530126472,-26.13677531267796,9.41610314239042,5.971793723539396,-0.05155354763079336,-0.6114800834140512,-0.1673940182830505,92.18786887865826,187.31190380558095,-366.74353918979403,0.06397627064366421,-0.9922023366477427,-0.10813664305274874,4.665483995386374,-0.027991041212007732,-12.502739868572915
2019-08-03 16:33:06.924264,0.07045540299605402,-0.04952763014813003,-0.214611184700085,165.49104188569174,-59.317518891120976,288.0382025223727,-0.047390818602666696,1.0018600081475526,-0.04111365842556705,1.5270523483316718,9.566656354535493,-9.986162598298746,-1.0627846245729407,0.13923209241962659,0.639633053143764,-10.709135876012043,13.439228974732588,5.893792210384083,-0.12702293096653647,-0.6780782997053985,-0.16202013476171728,91.52382838249584,183.62748613817598,-364.33897588890807,0.07178536056002491,-0.9960568207554708,-0.10630795176386264,4.831419911470203,0.034371781373023436,-12.576932489091721
2019-08-03 16:33:06.934264,-0.1390356440432052,0.042682668421885686,-0.1730494523453405,178.2571274473368,-48.843248758284346,301.9288825883038,-0.05027744559418671,1.0005180999033496,-0.039424059185213745,1.8115344871195296,9.326384288162496,-10.32352257852997,-1.0805126454026375,0.15951128532818196,0.7330803530571434,-3.3963821993115637,14.03419477119345,4.443962960089173,-0.25297364800412186,-0.7793772569880096,-0.1462353646683007,91.08868525110006,166.56019034219736,-359.45245789588034,0.08693825323157019,-0.9982556361800901,-0.10322133379166495,4.570075690019051,-0.4606549995296089,-11.916846241798908
2019-08-03 16:33:06.944264,-0.24837739008642834,0.09325099562871164,-0.15078697089906112,185.71012102095634,-42.9061450610371,310.22202761997784,-0.07167009095566879,1.002619758360097,-0.051114133886529405,1.680555822928517,10.032579659442963,-10.088407292171885,-1.056851230047537,0.1291184101865398,0.6596214870240237,-9.79495386094336,11.737055573055905,4.673877836754205,-0.2826028907202639,-0.854019302128514,-0.19670369380703978,93.98295688894734,135.00501006081882,-361.0381314229494,0.09106189300824159,-0.9973097874454577,-0.09957163769882386,4.205973425086506,-0.6717803874054433,-11.4598886346573
2019-08-03 16:33:06.954264,0.06238463108050575,0.013396937674399763,-0.20879090217551052,167.50627608995194,-50.02832359428167,312.78364593430774,-0.08608001028186964,1.0034524365703281,-0.061060884239261225,1.4329837379848085,10.829636490398254,-10.01469471943848,-0.9394216507544789,-0.02022766244190843,0.4215029793937199,-38.723827279587,2.7963740133707997,4.462930224619077,-0.2583064937902898,-0.8631638277931732,-0.22124249399942195,96.46178607684176,118.86391013685906,-363.683115529239,0.08848913703598377,-0.9976127507508367,-0.09568275886796862,4.1867707409966775,-0.7381561812976768,-10.897544772919725
2019-08-03 16:33:06.964264,-0.21163746125093685,0.09962302283616431,-0.14185673103676508,183.4204667200874,-39.85201050771514,316.5727358995682,-0.08607006941976887,1.0013303432108336,-0.06330851706469655,1.3268143916411583,11.07862270022683,-10.15145809837074,-0.9183734667466363,-0.12262677516468201,0.4885733307056635,-47.412126649162346,8.526155739883695,4.6949070076577515,-0.3595302001483043,-0.9179404541377708,-0.22021285212867597,99.84323722892158,82.83314942618834,-362.63372113572643,0.08699436210933628,-0.9976364349395991,-0.10082913466107096,3.792662748994154,-0.6154824212131835,-9.74681258324021
2019-08-03 16:33:06.974264,-0.6531806143027082,0.24597369008864783,-0.051605275352346075,212.08805367245034,-29.790082649260917,318.0555844902228,-0.0791721261658918,1.0002212071954524,-0.06124012893419248,1.3481896283857555,10.99551334440871,-10.110947440488868,-0.9724291745697198,0.007065760561779456,0.25843398451914945,-23.300980653066052,-3.352348449658669,3.8995074114738144,-0.5104470258712611,-0.9927014960053926,-0.22841145577862657,94.59933065873561,39.0153426441122,-368.0540391955275,0.091533031125073,-0.9960796749577346,-0.10719865491365817,3.173176899902973,-0.6094118524196104,-8.1215102106296
2019-08-03 16:33:06.984264,-0.4945769419744701,0.2385520890223635,-0.0749078643445806,210.71172543174256,-42.758351487135954,309.32209780380634,-0.07355601320944012,1.0032328169468163,-0.058877378808138,1.4904950201067613,10.75632200314468,-9.53845693997373,-1.0078317749065164,0.08050728688848743,0.13701623165491222,-11.186414025446473,-8.40740217176894,3.2965475250962935,-0.5877219598986914,-1.0227728225329555,-0.23001813198367202,89.43133180065357,0.9451986699678621,-373.4620737384184,0.08794263220144241,-0.9975993572505264,-0.10239841019631767,3.173656448516003,-0.2855548709490438,-7.304824380808232
2019-08-03 16:33:06.994264,-0.4595126900717332,0.26160781758506174,-0.1314958818596766,231.43123925011423,-77.4890147890814,284.7476862946424,-0.07483765324667516,1.0073005957363779,-0.06144268511495806,1.6953477726700628,10.51715766103419,-8.575738529275004,-0.9788275808561786,-0.009818961893573421,0.28986293567709975,-23.76071998185946,-0.6302209157716158,3.525908231218446,-0.6848720645856504,-1.0939958236099607,-0.18944099810897455,80.70606688201816,-92.3146249572905,-384.63199838062593,0.08349699712506284,-0.9929170190459964,-0.10961056187676203,3.0793812569739485,0.15317133053318416,-6.829234690260611
2019-08-03 16:33:07.004264,-0.48783058094014964,0.290359912115951,-0.1458536914632862,239.59995728285108,-88.7576833292199,277.8136297821955,-0.07952569953419919,1.0030932895190898,-0.0634595939735274,1.6576928069001031,10.513128115694037,-7.871537340843843,-0.964103471750158,-0.022260033867464724,0.30829985155750045,-22.10697166292732,-1.2291038761392585,2.2167774066052144,-0.6769320704084381,-1.2372774150780899,-0.16082832110793507,71.8810628835241,-177.38512026615254,-400.29184249111813,0.08530500471055913,-1.0024836771635206,-0.11391136565389157,3.0330949240633283,-1.2965054589822413,-7.226951252332668
2019-08-03 16:33:07.014264,-0.5563835290757824,0.4585733953196621,-0.12636822046666488,269.0051576643747,-120.88035049692972,259.40025701183663,-0.08380839397785556,0.9955813300289954,-0.05538371817190488,1.2722828804401518,10.526542609791782,-6.686066145527624,-0.9172466584351722,-0.03716124294944739,0.354212689041666,-19.418811768827737,-5.275301371096224,-1.0961327188562626,-0.6534977410745779,-1.2704712864662402,-0.1751330425058818,67.79823246425374,-208.24688375097924,-405.80173182922897,0.08141023814902987,-0.9974907802328661,-0.11255414544665701,3.084431997547447,-0.373339823530878,-6.946617839927159
2019-08-03 16:33:07.024264,-0.5430249638425229,0.6126913292346537,-0.05062095709000807,293.9464548354249,-147.9820048757746,245.47993679679456,-0.09240055959485967,0.9966781170501033,-0.06613141547800234,1.2635715961375973,8.926732183403997,-4.322393020805744,-0.909969347353622,-0.004909551445170911,0.3333736028012903,-11.926991321967813,-3.680258216014732,-5.886804819578778,-0.5445675746923575,-1.2601355011985296,-0.24176022782652132,66.91120183819456,-238.38150252989544,-407.4010061113303,0.07545759914258608,-0.9758418100335625,-0.10482109322806257,2.920844734237808,2.419699045998167,-7.092117620281813
2019-08-03 16:33:07.034264,-0.4855127177289237,0.7564086519050617,0.07391649307064865,322.3906011265735,-183.3473983527979,229.855460712445,-0.09104012478953778,0.9988560097998594,-0.06442315444666397,1.1465868082941497,7.900491121171619,-3.4897722423048285,-0.9028509554147577,-0.015141594066969525,0.3758508117726386,-8.980560676203655,0.3985664150906327,-10.841109482589088,-0.41459654013836666,-1.2887389580243735,-0.2529340136116064,59.41605496758868,-236.23721554984763,-399.21670956422605,0.0780502612143582,-0.9899411760163734,-0.10790426962802634,3.1698342553104393,3.044183629072376,-7.464663419177537
2019-08-03 16:33:07.044264,-0.46036417291166876,0.885666179778402,0.22050395949497342,349.76838976787207,-229.9140726580634,215.76954929568672,-0.082692003573736,0.9989919849512899,-0.0581241947899988,1.2918428694255748,6.746075207928067,-2.814370601586126,-0.9068044363270856,-0.04353154976047165,0.4360417062226023,-7.446126038703493,2.09087825135279,-14.467119597930274,-0.42825616502615077,-1.313349686096682,-0.22560770259577448,49.82390111735787,-223.66539859890256,-392.55199217773827,0.08725821311013324,-0.997456737477766,-0.10317522685909453,3.262880897986611,3.5089378611025173,-8.159841292536962
2019-08-03 16:33:07.054264,-0.49573399309722266,0.983708370109656,0.32008438491273167,360.89500401960504,-255.43793332462627,209.73941269950782,-0.07041682282688061,0.999328283480633,-0.0491544033519664,1.3354035666586463,5.053422711639443,-2.0325713972728177,-0.9405045216116804,-0.038122069076284036,0.4276298989760017,-9.11834046737866,6.022813993031683,-13.060487689165196,-0.5218883447579183,-1.3531574935668869,-0.11402051106942662,26.689632652005365,-178.14431727224328,-379.4311001938164,0.08007517471577531,-0.9958495532818112,-0.09765687836724815,3.1707109970083427,3.201294850905051,-8.018353644532288
2019-08-03 16:33:07.064264,-0.48582966991011756,1.025082939627365,0.32928011483600816,364.22394897087315,-258.2776944102378,206.5536685193207,-0.07113114192057454,1.0006207642332183,-0.04847609867669436,1.4727871036709403,4.353915878482209,-1.6225167149315702,-0.9476864782362324,0.012320175582944293,0.4087258975654796,-4.465639785901006,11.661752714516902,-12.025514975965736,-0.5778958990822274,-1.4516554469013068,-0.023733733252716202,5.846880429063222,-119.89624997192773,-368.3960418018156,0.07814225976114167,-0.9975714878432681,-0.10331239186873786,3.1704818036654645,3.7241570866368883,-8.35652304941612
2019-08-03 16:33:07.074264,-0.3668369742241634,1.0780359868379055,0.3639212936152388,370.36899215471533,-246.89667067548146,200.10962092319264,-0.06936422344579664,1.000782111841182,-0.046868746243304664,1.6479700243664401,3.8512856775498876,-1.2893611257599815,-0.9519011713780475,-0.0694227799174292,0.39293713617470677,-3.147578319557781,10.312886999053854,-7.980307237979216,-0.6011012032232739,-1.5267146826901008,-0.017851986062251874,-4.620175394137171,-89.70647578352114,-362.2411607617179,0.08168001963283167,-0.9986239515678099,-0.1047675777803558,3.076883834305086,3.97675096922657,-8.537828307717309
2019-08-03 16:33:07.084264,-0.2672321654428312,1.109377121571753,0.43045843740372086,369.66632010478554,-207.17978787278562,195.6493249874215,-0.06424487742206339,0.99966594585489,-0.05341005149197561,1.5123681644507014,3.479039338133991,-1.0419686441953804,-0.928924346395771,-0.15403817011113582,0.3852025600971991,-11.663097127579892,9.858457442921777,-1.764687167776547,-0.6185498880722327,-1.6935858408472795,-0.013146911807370779,-23.13516624928761,-28.331428024883532,-344.73075623444987,0.0801562864592421,-1.0053175944023667,-0.11126372404408535,2.9751350288285847,4.012362449633517,-8.786198851437765
2019-08-03 16:33:07.094264,-0.28415143235944407,1.1381046184402321,0.44462857184007265,367.7991336114572,-177.1531110742077,191.83503339941572,-0.08048013194938161,1.0093731633687226,-0.046572735311693335,1.2432244329009652,2.2170518225586235,-0.46434882884869055,-0.902955391919583,-0.10569849191193996,0.3937804770180178,7.491293236432107,11.366225624113522,-0.7266969628391422,-0.8134257359196098,-1.8210971462206025,0.027583088487713594,-40.36309782979464,24.876574653094316,-327.90033965952097,0.10817100329971223,-0.9914957128065,-0.0890980397004373,2.649585185061811,3.717002877385636,-8.655636891701642
2019-08-03 16:33:07.104264,-0.3719290402349647,1.281164573401584,0.5476413968956549,366.43388294543615,-100.57137006632597,182.73959864856351,-0.07968101478026582,1.0173583519039913,-0.0611610777363593,0.8756139564519922,2.37830446545544,-1.044295176531262,-0.8945967296016971,0.01706334715290473,0.3774189606979545,35.549555439697876,15.724767785665518,-2.2633665393168294,-0.965689751342762,-1.8136209040798683,0.05457766168379098,-46.81618946941555,38.78727065980146,-326.33552735906255,0.10392536663453952,-0.9827498031844116,-0.08774322166168558,2.5354351500404024,3.981261448185011,-8.357045069175292
2019-08-03 16:33:07.114264,-0.5095629317628725,1.474696925859187,0.6759150079904197,367.4450765964592,-29.013490433954466,170.94099500812212,-0.06876981800022085,1.0135305261989311,-0.06483933581228546,1.3247204482075319,2.382537880602664,-1.0645472979714605,-0.8647105361425079,0.07630653953277948,0.36034326036737213,47.406533852702836,14.952228075405278,-2.9258355457060623,-1.1523171491186388,-1.8414084364253847,0.11062357444347902,-46.731500171279166,29.540824608348796,-338.8856570463437,0.10967251750324497,-0.9885434273011161,-0.09035188176466333,2.057134010449233,4.769518860717598,-7.375400417523823
2019-08-03 16:33:07.124264,-0.5948709447773871,1.5609851966324175,0.7135083983147332,368.02847932278075,-2.6240344896661645,165.72056373639398,-0.05969391595308698,1.0003507431395762,-0.04633367722422948,2.3914588102203993,1.748177865514952,0.04347684147200405,-0.8794735448967734,0.034038105829413,0.373573428869116,38.389325492073624,13.252061672472454,-3.8249859762625196,-1.1756652700890062,-1.9314531898472314,0.13092252115785605,-46.99433954432112,7.124781429334217,-348.63611226462103,0.10722974539794797,-0.9869494930523411,-0.09576414345930248,1.7455393690849372,4.629349020792771,-7.322490877232922
2019-08-03 16:33:07.134264,-0.6883098225720261,1.7218914509590677,0.804204914385954,368.29554989708157,30.840392460254442,162.14329921677256,-0.05806423245435153,1.002739609274002,-0.05387828316152379,1.8195297767114207,2.738603544367309,-0.2898895069630269,-0.9462181142700571,-0.039578021025578676,0.3155035187764307,23.492289179520142,10.256918445646944,-4.650268056074294,-1.1721879331478422,-2.0954761707689364,0.12896603629717782,-53.73182530707237,-27.257751315475762,-357.15698875657813,0.12489085570507259,-1.0004338146279386,-0.08902613992067766,1.2803441304417702,7.299291438450647,-4.796137892613074
2019-08-03 16:33:07.144264,-0.7521657695708797,1.7392557804909052,0.7356508489020017,367.7067977545434,41.588907729576064,164.89437598892735,-0.05505972967081095,1.0009208993453031,-0.05357000052016011,1.7224506691354782,3.084749276825558,-0.2992788460129934,-0.9479832877583753,0.0061856455014456515,0.24884622241569085,19.074666837679967,-0.17076806107018888,-7.728211926645805,-1.0718119213831028,-2.156019931126684,0.19581752669517333,-69.08097296510961,-117.47708987182617,-369.77145240621246,0.12629619554688798,-1.010067226125078,-0.1065467969020331,1.3456506979843617,6.398081135942104,-5.773332020960187
2019-08-03 16:33:07.154264,-0.6759694881034485,1.5293159007922763,0.5045576329966668,381.8613226113496,41.3000220593282,175.89558214355077,-0.05850689856284159,0.9959359877940224,-0.05255192422783178,1.7922968007304174,3.048334653244332,-0.061559544604105475,-0.9163407381396865,0.0759894875203104,0.300880202644465,36.210571665653646,-4.35962401230647,-9.424143598404196,-1.0083174150946428,-2.143361571463168,0.2878046263900015,-71.99333979692861,-155.25098240385594,-374.6389328457952,0.12793462932282829,-1.0163824960313246,-0.11009780438902665,1.4056648196229207,6.120237318940925,-6.106227722056391
2019-08-03 16:33:07.164264,-0.589924269152452,1.3553846894233357,0.34807354747931607,393.6060812851982,38.041294106564756,184.15580169405357,-0.06848500745888086,0.9921089787939573,-0.057521128394101034,1.5765177345484873,3.483880834270978,0.061572795722620144,-0.9415651708978371,0.07541256281538089,0.3244964673169662,42.319539213441075,-4.515235201842314,-10.391087129615846,-1.0415810020370773,-2.2187223697934617,0.39342093849639215,-84.41563872754763,-186.75477388803347,-380.6326854112677,0.1230375156081861,-0.9764494679769677,-0.08777722407985501,0.24882224860671956,11.403836039941673,0.4752434541998763
2019-08-03 16:33:07.174264,-0.6576630951313216,1.49992936177883,0.5039364901015135,382.133777967524,37.206000884581755,175.09946738545864,-0.06953102502002874,0.9946345097765643,-0.06055094112471586,1.4211524463454144,3.940871471716681,0.1043169186541936,-0.9664736961868682,0.037977740487764367,0.35719322370183065,32.70116463786079,-2.1696550716603755,-7.977826572716036,-1.1324527975392409,-2.3157777582009493,0.46850261013207267,-112.08798061179772,-229.83453487635242,-387.55513980957477,0.12793790805102231,-0.9699949079937651,-0.08585696075629455,0.3981284852970044,11.80582681023484,0.8779245753488012
2019-08-03 16:33:07.184264,-0.9379100255553557,1.8987742664257135,0.8484327429911469,348.4408182284437,37.27549898793014,126.67866207231363,-0.08267668633902073,1.0031236364839244,-0.06732243933325001,1.8006815408223984,2.999142126159725,0.08258987177604056,-0.965331713859912,0.06034864963023604,0.32142001905179085,32.15502578393206,-7.698219277686775,-8.037115119819589,-1.1806887510733102,-2.193204859927178,0.4452207519806966,-105.05453845650722,-218.95010891460893,-385.8392908789254,0.13108017611052436,-0.9711207215533362,-0.08168554457006191,0.33149106508461357,11.3323839728531,0.6275110122570393
2019-08-03 16:33:07.194264,-0.6913795603876736,2.0333263922848452,1.078906073099583,355.09384895129614,66.80902808895414,159.69020978453773,-0.09765767984817975,1.0030529469703955,-0.06968116959982061,1.9738117180468904,3.7643836411693874,-0.1479878713959757,-0.9983359383409679,0.07673583628914402,0.2779616460842775,28.691609571591837,-12.768901898672475,-10.553417725180383,-1.1644550720750582,-2.248945597049883,0.42036434675116896,-107.56902950263687,-227.80043389507506,-387.6765466678336,0.10494045752133929,-0.9922991765805831,-0.0935271377791451,-0.7622553687767564,12.560008586158038,3.241074963637175
2019-08-03 16:33:07.204264,-0.5408760257439614,2.0626308162654103,1.1520809884472212,361.04931145804517,65.04690406312068,186.59769964093522,-0.06474178774329042,1.0067935809571744,-0.05080369895574253,1.2213396545432664,1.4787217961342543,1.3994328983519757,-1.0500706222274343,0.022399356321169406,0.30985702224296896,13.951034164184781,-7.307399042515753,-11.088394078683878,-1.014885134806012,-2.663787553511036,0.4085610432823993,-159.7220278572745,-299.2247982642861,-395.3748512263306,0.09396283668364146,-1.003172704415283,-0.0990512630920733,-0.9077400037511726,13.165521573334702,4.266925785042755
2019-08-03 16:33:07.214264,-0.9235448000312639,2.1122062165908106,0.8663118221041471,347.9966378130426,-39.04854224918028,89.49664456602112,-0.07570214415290712,0.9886491162268434,-0.07079881460168183,0.9280434223069288,1.1641765701729192,3.8065237842226516,-1.02900217807318,-0.019560484309418456,0.4487506473268818,5.503084950785735,-4.652989643863863,-7.288178348700757,-0.9819124481861045,-2.734951043372864,0.6588596461111901,-170.13575331787032,-301.506042543779,-389.01621219215383,0.09339099964679602,-1.005913090303795,-0.09877871632546961,-0.9856996904905182,13.00924321905132,4.6341897056376
2019-08-03 16:33:07.224264,-0.8021271807728776,2.1569749328067243,0.9613758277149922,349.04067429765894,-70.4016594933738,71.05996743998982,-0.07107977754938725,0.9895486037183302,-0.0706256894669639,0.7142171415405726,0.8606375335973092,5.254653273435301,-1.0252949440357226,0.0069796299113959615,0.4415457282427848,14.069139533459001,-0.022255484232832246,-3.629754074161316,-0.8788082930220916,-2.595358493339478,1.0637761413155429,-180.90947988962301,-298.285117948222,-368.81737688225246,0.0852964849436027,-0.9964138854309553,-0.09806585045025702,-1.330805118103297,10.430753973881755,5.664332504746509
2019-08-03 16:33:07.234264,-0.586632289605813,2.120212109899035,1.2002834713963249,351.47797701604037,-100.48215596305958,48.173783281051406,-0.06637390796372707,0.9934806449305708,-0.061763986563896894,0.7926105809789814,0.043667730009855125,6.257425305588724,-1.03397382896152,0.0024351478545744515,0.2608550565534591,14.802051862562882,-9.010904173961428,-3.2108756022054643,-0.5646550028626722,-2.4367848482917323,1.0553480930728854,-184.2005351537234,-267.1193078965871,-338.4019388912041,0.09061334497483683,-0.9910617467626364,-0.10051774300979317,-1.0768432955165328,9.780437362033322,5.568923701485982
2019-08-03 16:33:07.244264,-0.5274512605419959,2.038071589631174,1.1814911520022018,350.37644472385614,-109.75749206001349,37.795363904824995,-0.054763332352390434,0.9929506704028022,-0.05591585201059307,0.6771597337710517,-0.35691469150660604,6.783047523373028,-1.0432118428250345,-0.03099419179283001,0.272919029454898,4.0653214834000275,-12.961340822151843,-3.6362146482455096,-0.41853756730217456,-2.4173048204121774,0.9666606149097735,-181.5040780379312,-239.3693397361498,-328.4463882553863,0.0861086966466768,-0.9873045108426176,-0.09325617765125696,-0.7926224226348091,8.036939883987252,5.51748327279492
2019-08-03 16:33:07.254264,-0.37182666475606546,2.092215063414066,1.2158175854559659,339.4787958123825,-107.54909340032201,24.203443166746066,-0.057197267214088784,0.9981171286611774,-0.04933372695712389,0.7052233466505992,-0.7686254647313725,7.193313094699014,-0.9977585204548106,0.01050886540787268,0.4564862155312414,5.3004958767824455,-8.38150435193689,-3.1238227740035582,-0.402373225467305,-2.6223644094918286,0.8783724282900397,-185.1996028868731,-177.09092849907927,-320.29346666311585,0.07586445505998084,-0.9901350450641428,-0.09769896445210358,-0.8191779452825013,6.759343827716392,5.4189855471651285
2019-08-03 16:33:07.264264,-0.3573220933137575,2.1295063800183383,1.1352810953197605,331.52988927018464,-84.08298915870662,11.349161949034967,-0.060125940131464904,1.0031935444242472,-0.05506902152487083,0.6432815489176026,-1.1154781245181429,7.513777555553795,-0.9777863770990184,0.09510066762239056,0.6363854072458013,12.697250074121627,-5.736104813597388,-2.841462098236278,-0.8727147400638966,-2.7632803364839,1.1069529510228733,-184.5894506231976,-74.49723969292111,-308.5554962781809,0.06998201428664039,-0.9996099611525389,-0.10337294727532169,-0.6099768731454608,5.906010701781733,5.114590038144176
2019-08-03 16:33:07.274264,0.26279435170364634,2.3103227000044857,0.8787028054881043,347.2602443720044,-169.3778993443834,13.373148865706316,-0.047624995309706396,1.0046733812335003,-0.061571703468495366,0.5388940796519779,-1.2596172589750736,7.659002025900229,-1.0113889421035285,0.10835643130667896,0.6234790955355615,25.58111645655017,-8.066229918263165,-3.139419265789643,-1.1483628084632178,-2.785802654288623,1.2307508140420873,-182.9770645735016,-28.483629005879155,-302.9975441163148,0.05788315091829035,-1.0130884310205799,-0.11761202289401207,-0.6688640283876206,4.595791469159431,3.883495736680338
2019-08-03 16:33:07.284264,0.9935464999292348,2.5076344615213144,0.6337514438703697,368.67284839182486,-280.92219467397365,22.152013925169527,-0.029462762015483954,0.9988835712607167,-0.05239879755655802,0.7526919943101247,-1.4847629871547874,7.521539951247646,-0.9787214340627193,-0.050201950545491474,0.23161823458701067,-1.6767490188817915,-16.777350428425514,-1.1111664567506896,-1.2794983562681936,-2.517145240423761,1.1675817473439858,-166.72831350776778,22.74842766578315,-300.4422520535476,0.06377386274989466,-1.0074337158608344,-0.1107517143185435,-0.42043061779702695,4.718129760120918,3.7251143867777143
2019-08-03 16:33:07.294264,1.254477239684696,2.5537343612053265,0.5666245827768768,376.91469576036144,-330.55401935641095,27.634067350533876,-0.022865166548259864,0.9847672792040068,-0.04867614975433307,1.106553297996068,-1.5248869186661935,7.026350429920805,-0.9651933300828712,-0.0803737388020192,0.2111992140797983,-18.719850612081906,-18.21013964485063,0.2278005264628432,-1.3325401969361117,-2.292848996154699,1.1292934582125527,-152.15320258090128,57.31690717414953,-299.1947047639037,0.06466324554976925,-1.0053137991438157,-0.10989147403865644,0.17464905122519975,4.190008003249289,2.7308930999530716
2019-08-03 16:33:07.304264,0.135244025519892,2.2702842316585228,1.0138623612571427,338.8448622670955,-144.3911088359689,16.348941223885337,-0.03116871601240813,0.9861772298372056,-0.062197466119116675,1.2110473077340531,-1.3354697419779493,5.752625943794997,-0.9860455545080368,-0.024122054088366308,0.2791427163184578,5.6278057851772045,-14.089116271583794,-2.2301337863110398,-1.2243683962594711,-2.2050742288060836,1.0267469548460084,-137.19647963748145,48.56419245334573,-286.6958947454286,0.06645658694702895,-1.0008970101820858,-0.11081528239290998,0.9854834999138913,3.765594406396629,1.3520992653976387
2019-08-03 16:33:07.314264,-1.0959592521630475,2.1550560435438837,1.7611139998321876,304.4341173331264,54.56116608662638,11.081402885216391,-0.0362114827453638,0.9915841198930526,-0.06942865511678485,1.3051262245297384,-1.350869952613495,5.054016716892593,-1.0060118746039701,0.028870715238517544,0.40500282155013706,11.422697493721099,-12.097789765447596,-4.7340263290792395,-1.1737932895271659,-2.059789229659572,0.9610567115556357,-114.61301755543079,37.20931644595058,-262.72629780347165,0.07148193759311426,-0.9952234088668073,-0.10960522457105047,1.2870727574995346,3.5822693164820567,1.0875741203131666
2019-08-03 16:33:07.324264,-0.039195587110222876,1.735590731766124,1.3747611631371797,275.7825923124261,-263.4225219799458,-6.07700923552276,-0.03703304140529601,0.9963632295801406,-0.067878404875133,1.4167644291214059,-1.606731434445179,4.7241573565989,-0.9579072843645896,0.012638652085767102,0.47523580071723526,17.26462782214174,-5.4567459467395345,-7.872794585296505,-1.2442227129234542,-2.0266147144725144,1.1176313413389767,-107.6954431305707,30.664031218424885,-248.10484463750046,0.07527667429900528,-0.994392203431313,-0.10822690031946099,1.0467960976944455,3.2609451562599663,1.583719416758598
2019-08-03 16:33:07.334264,0.11587295141758341,1.754968788506569,1.44932265563312,269.86681493910146,-306.11666674746846,-16.089191990921762,-0.0393338442540849,1.008771737751006,-0.05733497965728175,1.4509257105961706,-2.381888606452358,3.3376233933590864,-0.9604785277379391,-0.025247898145930838,0.5186365514011714,12.80072212049359,-6.258260585279958,-10.079153675483022,-1.4519524936100834,-1.9136577745653032,1.3379434129009506,-101.49151702426958,20.70621250615945,-233.30226166888087,0.08325632181229967,-0.9882751975608693,-0.10155462343905781,2.349821818314472,3.65964768237333,-1.590398573777297
2019-08-03 16:33:07.344264,-0.4404477496128875,1.6244359013692804,1.3782602012959497,324.21422284238514,-224.74082196728295,-17.180441523927072,-0.046606267412812534,0.9905005098602578,-0.06013831741680446,1.3828345636919566,-4.329463422872739,1.30753144761423,-0.9540863078676289,-0.12248176722883689,0.45922610932331187,13.968370379318957,-4.529146752862476,-10.027182341722803,-1.6735907907501435,-1.5743733926239214,1.543735646466017,-84.37126555010111,1.6297186818808638,-216.2666953670151,0.07873888438020993,-0.9934641554232662,-0.10327782383872683,2.835451819026365,4.24377480510669,-2.0361699765817063
2019-08-03 16:33:07.354264,-0.12180899553498631,1.7425951281570307,1.6249721858424753,234.87952380908064,-244.01865333773787,-28.552568946451725,-0.03351731383427836,0.9783157753772381,-0.05396359795827335,1.1335181035375932,-4.0855261800895715,0.8609456722882561,-0.8802074483846112,-0.20824542142555927,0.4561759582233466,3.067074233299194,-8.902176422433962,-10.498354570128758,-1.6620105104274372,-1.3484668741098689,1.5867465807870214,-69.28110032032015,-14.280215744245075,-203.0155884368606,0.08423882605497726,-0.9941844568122276,-0.10670513933000023,2.604440557385692,4.152972550263697,-1.0196115347305423
2019-08-03 16:33:07.364264,-0.22157444927736616,1.692727492291105,1.561123226575753,232.63573745102914,-231.66639529252956,-31.57217504283242,-0.1266129992080331,1.0090226543974108,-0.09790712214539771,3.511023577626938,-7.108655904512065,2.79130872944801,-0.9169095293219075,-0.11618910174225182,0.46823173758929726,17.63052762087748,-5.287665326658396,-15.377927502168639,-1.5805809420072627,-1.3021253266985937,1.5583258534955524,-62.42702097704898,-25.664395612057245,-193.24071584699982,0.06604827152936768,-0.9879164954751947,-0.09341521478137155,5.7961938647957645,7.391589400107383,-7.603453490819708
2019-08-03 16:33:07.374264,-0.30446293292825427,1.6302707642859275,1.4376399550521128,212.29355519398408,-205.1542371344816,-35.92292664211817,-0.14553230993368496,1.017460420641296,-0.10791685184654096,3.978800487069317,-7.695942313702395,3.1634163456610325,-0.8468111515213494,-0.02432814495139065,0.5037775311825679,30.44074895121235,-3.6311997822291833,-22.012696041172365,-1.5221907665722236,-1.275582125486579,1.5381297056084795,-58.687398889662255,-32.9340303567319,-186.87262541652606,0.06434992734033582,-0.9845175715370331,-0.0932685970225208,5.8880511030906275,7.627376907041306,-7.973142164443834
2019-08-03 16:33:07.384264,-0.2727734018826902,1.6401811052877375,1.4507419735804634,193.73139267543496,-191.52736760197035,-39.27693820123048,-0.10908092148452322,1.0094580552118033,-0.09172712534633998,3.1157774484703853,-6.620357019147783,2.4674132168440823,-0.8342179439429747,0.01690105599900642,0.5348331682712786,32.34305224783266,-6.086013177784415,-24.55366784088137,-1.4857658831377778,-1.2595828767525568,1.5238669472422408,-56.164603770372594,-37.349860047197275,-180.6294801421713,0.07198442583811167,-0.9867609196671977,-0.09800668982080105,4.622931733508921,6.430430792647769,-5.440976924609249
2019-08-03 16:33:07.394264,-0.17760223233118472,1.5456671232971724,1.382743687293603,171.60155590857025,-190.87579333712404,-52.42792270916649,-0.06652007507712247,1.0018964573513065,-0.06994840953405915,2.4216241836060575,-6.05735256472874,1.9021478125744418,-0.8641636218290022,0.030471221909618262,0.5362322629565075,33.23346879101041,-7.089938973846677,-24.89166044758024,-1.448248812877677,-1.2522754802154226,1.5087014605116191,-52.96657731749082,-41.16113547485559,-172.10964401327016,0.07352781677066954,-0.9975212241196652,-0.09054036603136754,5.379724204858732,6.542613869209059,-6.7763174811142575
2019-08-03 16:33:07.404264,-0.03358678254207214,1.3961760681738717,1.2298025443779295,143.2051359774723,-199.72833014271998,-65.95439583417757,-0.052841212610607334,1.0055889764191022,-0.0584676117420692,2.815978337311936,-7.240618375411648,2.1994172869523676,-0.8916927739005714,0.04471461413942672,0.485450370928287,44.501298111910764,-0.41857395849519863,-25.84618029985624,-1.4134961478669463,-1.259854731361219,1.4807623229719653,-47.88385457366897,-44.02944387684924,-155.4708863923213,0.07829320232257868,-1.0028231485105636,-0.09819308713222538,5.380527253747923,6.73125769558608,-6.9610488080440085
2019-08-03 16:33:07.414264,0.015064653877562043,1.3158742774494292,1.1337800887134433,119.98341071886205,-199.9950724854487,-75.209516235087,-0.0537347800008573,1.0116394140068379,-0.055186025182488434,3.445527350799349,-8.649036273657018,2.670212409696273,-0.9086891031109664,0.008550747127896944,0.4553134240586585,45.80085402301019,4.590006351896031,-23.882760977806676,-1.407606404440211,-1.2776650840424915,1.4343185080497278,-40.075783857432576,-43.341033256513164,-122.0227729893907,0.09193329789662327,-1.0121319491069762,-0.09466147521573091,6.367482522174683,5.255612037914074,-10.127113816737479
2019-08-03 16:33:07.424264,-0.01890393119041646,1.2713715548908062,1.0995269487082242,110.27856912505779,-193.3247258785534,-78.22744540241695,-0.05106697533638834,1.0115181369717294,-0.054841204816478493,3.5400171547208927,-8.956076287269049,2.736733767031684,-0.9636187500190092,-0.05544088634142342,0.4434588376612317,55.43696395173526,9.075834839915121,-18.191207563038535,-1.3305149473709776,-1.1803948029470417,1.4089183633840934,-23.579998179951883,-45.6056744994397,-83.61487894503423,0.09748387064112132,-1.0030386553156658,-0.08762125847653876,6.9509852277686,6.52577186691663,-10.9994378246849
2019-08-03 16:33:07.434264,-0.1130696385631231,1.161613140105218,1.024590076255444,92.60497692136038,-174.6127856274928,-81.18436962178372,-0.04731693912323699,1.0077638619229625,-0.0569488049456599,3.420508663243346,-8.643937256006144,2.7679038102624633,-0.927134171557856,-0.102323222779026,0.3847115511780039,64.6106506723995,12.52562184897254,-14.896373116125694,-1.2382370574189534,-1.1212630338520635,1.3106149278803345,-3.7434212308452266,-46.18092745091051,-57.200401237434185,0.09036075563717474,-0.9995580811562357,-0.0886457249266127,7.497417862965619,7.293595174031694,-11.86004196002332
2019-08-03 16:33:07.444264,-0.2191663115195474,1.0708614436633392,0.9418999186962272,81.45089787019201,-158.4534415861297,-81.97684919243659,-0.04616420550881263,1.0037176331380195,-0.06115416128322649,3.481828523579643,-8.318894246065515,3.1887026052839,-0.9174034182576281,-0.06992404206107268,0.376102883889436,65.66242538261193,13.237950021624293,-15.001401132663947,-1.0634837455406796,-1.0907838593333603,1.1057065090686715,15.454597571310135,-34.54567693624523,-32.22333309956685,0.08447351808441265,-0.9978023617059889,-0.08788992683794927,7.5000757079772775,7.988050940647061,-12.530797133072435
2019-08-03 16:33:07.454264,-0.3002346370856673,1.028571274219362,0.880062139652359,96.71111460644259,-149.566544162039,-81.77719878236786,-0.03964994256735208,1.0003146804343537,-0.06179216193341679,3.559675248595506,-7.6995563848635715,3.7117893082396245,-0.9392823150666975,0.025634583375271275,0.3745889461673119,77.26725493494834,18.329856984283882,-17.14265628273278,-0.9239392293150408,-1.0821188559188024,0.9402828030988376,36.39390039762251,-6.506749210211211,-4.730039258885705,0.09795598907302737,-0.9990047934634663,-0.08022275592994789,7.864689498598627,8.447458536959028,-13.26335685450408
2019-08-03 16:33:07.464264,-0.2418488159363543,1.0392131622597631,0.9166638003083639,69.24128670944941,-155.05336621334604,-81.94289887797486,-0.030840866474062797,0.9977559198416092,-0.05867039417271895,3.7613044541334486,-7.2334330319379765,3.988969658854092,-0.9571870614439563,0.041951219890869126,0.4057285446934706,87.04457514874491,25.318033062797152,-20.2619520321331,-0.8721584231613744,-1.1039010782002208,0.7977186221549567,48.824297677579025,24.63153850749999,26.086070077419556,0.11908389708123518,-1.0008524353332575,-0.05821710449949477,7.703557612321038,7.755725862099028,-12.56635312243743
2019-08-03 16:33:07.474264,-0.17795108144983643,1.06174450531361,0.9153646686082254,57.88711859431714,-165.97336987020785,-84.29383918108424,-0.02402355602937558,0.9947791669859335,-0.056174422629197446,4.0104738917052565,-7.230933749224726,4.121019951341411,-0.9542083610932972,0.014522728625462599,0.42035555039753697,81.36827624028112,30.06087777852835,-18.97912594741961,-0.8208383287949508,-1.168488547274771,0.6889421689118512,55.04824159303028,43.78017671036432,55.35374897557911,0.10318421140157624,-1.0022080793797339,-0.06223375207451276,7.994642830176034,9.01774032731353,-14.268401858692368
2019-08-03 16:33:07.484264,-0.1742569468149676,1.0379196141223734,0.8735433975807338,49.3364016441611,-171.3073338293662,-84.47919901439298,-0.02097945553767592,0.9922036258132896,-0.055475491686507,4.131369550084534,-7.1322934868416175,4.192518752695556,-0.94997129853883,0.015741565643825388,0.4023630710372044,80.20326366843013,30.200933767992122,-18.6855420136357,-0.7272053193059074,-1.2422335092455024,0.5903971171183162,57.18801220294665,44.484888267570085,81.7876003931693,0.07919806979656313,-0.9963302260340384,-0.09426329439021344,8.444025960064048,10.11870119316489,-16.3142523868391
2019-08-03 16:33:07.494264,-0.18888995848385987,0.9752756698259095,0.7845724647413326,33.97472337059681,-178.15380410124732,-82.1781748021203,-0.030406803559319278,0.9953594478913721,-0.05507545127420635,4.222637730409336,-5.876916547049269,4.324502809450667,-0.927893232808528,0.0070532569436492654,0.38792303402217915,79.57515612974251,27.668257620965303,-20.933888317022177,-0.6392026916418927,-1.2722014638068053,0.5130348678809415,58.09352135212017,34.51653574026013,104.67666781477155,0.0954987580668786,-0.9989936935892797,-0.08321044813253108,7.833182122544987,9.37317474434592,-17.399295140446718
2019-08-03 16:33:07.504264,-0.230942513070179,0.9317959531936594,0.7329531663772387,22.115871902048646,-179.47738604336692,-80.4310448115184,-0.03191906861816817,1.0022728545078374,-0.05480210911081003,4.548909135490183,-3.6592426299733067,4.326626331052529,-0.9606067941978124,-0.02964997791360624,0.3609133273229298,77.84280363868159,28.875835309331087,-22.912094346912088,-0.6176298055236303,-1.2822648230939304,0.5023790661059565,58.73695348411542,30.332202543454777,111.51090069068907,0.0853713229391872,-0.9929418811745409,-0.08591467432376158,7.212418117426837,8.318319581250158,-17.55437628947924
2019-08-03 16:33:07.514264,-0.23165724875720814,0.9610051520382102,0.9004031998549977,39.03423271756489,-178.3097102266127,-84.5787223545909,-0.014877208904505359,1.0073650371653764,-0.059117672664410814,4.867065116625404,-2.9481929950345855,4.1670255964096565,-0.9515886642788641,-0.07715739901212586,0.33343126136383583,69.63076353320747,31.193309053976453,-25.518487612979698,-0.5921346413332733,-1.2821063290647183,0.470777665425244,58.436744889399236,26.330573782927175,119.21567250118457,0.1372324183715398,-1.0102047850135292,-0.07158704318097396,8.04262026476064,10.076754810918125,-18.189507569804302
2019-08-03 16:33:07.524264,-0.2426679110429273,0.9096981656193547,0.6378411281587656,11.814349914379317,-179.57237401401818,-78.35720890998212,-0.0238032289308897,1.0043958781584552,-0.062009643973500866,5.133023422919985,-2.211256926416892,4.221941037048679,-0.948060986619051,-0.08836004927486162,0.35540406986469786,67.40351388864235,31.834909960292585,-29.633746472432513,-0.5210602837959967,-1.2613708773928627,0.36515807389339316,57.74263420905512,15.938369966759817,143.2049531159721,0.14660173714100946,-1.001625006606239,-0.06291762797183283,7.700565492975216,9.955665196108429,-16.900670374608254
2019-08-03 16:33:07.534264,-0.2498766176959961,0.8651576510231236,0.4142789003599948,-11.985940057755268,-180.81224981794819,-73.15779321857057,-0.04380714596158257,0.9921213649539569,-0.061017715030831095,5.447230865874128,1.8375252935764919,4.168067839898189,-0.9492123135039402,-0.09490222910164883,0.36806753209684967,69.39739576318489,36.262751532900815,-34.55644212135646,-0.510097051099783,-1.2471825941759764,0.3364316900470808,57.59447515352511,14.19632258071245,150.94489444492226,0.15616456645671153,-0.9981288228178413,-0.05510288310733187,7.199008589898735,10.364827391731385,-14.895104620556364
2019-08-03 16:33:07.544264,-0.23859112866865,0.8843732763734086,0.4529726122303432,-6.414623765823692,-177.81144286784993,-73.96480721657763,-0.042531681395831626,1.0051016139128837,-0.06193611421631724,6.06164331832696,3.440247186720344,4.210300338935924,-0.9444940111021276,-0.10124635957042685,0.3634408386291093,69.75328453216166,37.41065410296812,-36.494073281249975,-0.5039812555170602,-1.2496210066922029,0.3269222228425172,57.12842662243179,12.986319062291594,154.84919061771436,0.1738689353925289,-0.9779292050033537,-0.05271003395765403,6.614587862552863,9.964379903912159,-12.119721365664176
2019-08-03 16:33:07.554264,-0.24835092950138757,0.9051340648121465,0.37086386657532316,-13.462187551172976,-171.12604769001865,-70.43307353761348,-0.0381550647449633,1.0127038126593417,-0.06631864799400591,6.50481109325741,2.230488913388258,4.431867999586612,-0.9533120748878259,-0.10484174242248277,0.35783676994288227,69.47531541622985,36.49294912423439,-37.474549539389486,-0.49400671208844715,-1.258999380505633,0.31649749847193864,55.921159028928436,10.698848596439968,160.80190253551376,0.16461203942072974,-0.9756338235399221,-0.05128253905568844,6.624596719729417,9.261563978882934,-10.763670618314064
2019-08-03 16:33:07.564264,-0.24497221600209587,0.9150344224647013,0.31635649210875233,-17.11364132602781,-162.70239544250703,-66.35350626226786,-0.03637604844436104,1.0095139194579525,-0.07426065775382931,6.401771376446026,1.552206738418656,4.573772982323178,-0.9501799919179661,-0.1225901046605914,0.3581875672823726,66.00373393029984,37.07312872738192,-42.71310196807525,-0.4806375118446096,-1.2703393522505704,0.29969854516629263,54.13526929980038,7.697375177641372,168.76237501875266,0.16661248488970024,-0.9552191390926097,-0.03322150392547306,5.682193760048081,7.306215820990785,-7.827295779840082
2019-08-03 16:33:07.574264,-0.24578470659902055,0.9096244393548432,0.3034273109165647,-18.561375669046274,-159.51917499987584,-64.388723134994,-0.037598832738858355,1.0111777226430179,-0.07873780739475113,6.344977152338621,1.5242383232045849,4.643431580876146,-0.9441609891380084,-0.12989988673066727,0.3506752356453656,67.27996122349374,37.77076964837363,-47.734770661300004,-0.47001146735914345,-1.2827092306599581,0.28290458238780475,52.14613254836958,4.701265778335269,175.17606131589952,0.22131793950879558,-0.9538868945861896,0.019409887371518008,2.5770801099180978,2.416601448402402,-4.0104417964091645
2019-08-03 16:33:07.584264,-0.25178646981369823,0.8884798289261644,0.2730545066585856,-21.922704880355187,-151.25136473210995,-56.42804760615489,-0.03949622594666628,1.0115477116421274,-0.07691668765510765,6.341191408520971,2.0007605169951024,4.788183639805514,-0.9410965375128489,-0.15348747961616396,0.31713462213134225,68.46473733519538,36.057567330174194,-52.48257561064114,-0.4546631833381033,-1.2919304233478726,0.26141538263390446,48.887204176333654,-3.8164741346477644,185.80598866904086,0.20557118051906365,-0.9416847733497511,0.0021097516820856696,0.5676391716281337,-0.6560720529104768,-0.47196577088278757
2019-08-03 16:33:07.594264,-0.24988908996235035,0.8741003116551327,0.25449912250087336,-23.24883811912316,-146.9020880347326,-47.57309006284715,-0.036786695922407596,1.0048191608557524,-0.06852009005626959,6.279187596373093,2.4718353293691684,5.0318287001229,-0.9607333622275844,-0.21042367635703768,0.29231198642612793,66.06731310501362,34.575419520728914,-56.579063197111616,-0.4348871466403341,-1.2817524847872355,0.22843278329434072,46.57585876549465,-16.88777285586606,195.60937801002567,0.2036038861408918,-0.929084298004236,5.408236065870906e-05,-2.2219995870260787,-2.876683560597501,4.99555550733229
2019-08-03 16:33:07.604264,-0.25337497583247637,0.8708717932398182,0.2489498254829803,-23.78485127109129,-144.6698518394458,-42.941534572537996,-0.026381850479241513,0.9979918383150754,-0.061399314845805644,6.088008847575031,2.482376606253751,5.130194458255273,-0.9898871283995005,-0.25018374304629737,0.2869050867942839,65.36316239045199,36.07789189884041,-58.88816983161549,-0.41170790339423674,-1.2414130966591945,0.1794976187795716,46.19232555911307,-31.7471926834939,201.0817136435576,0.24849761884293642,-0.9527340871669988,0.05867183892106311,-6.318526276089213,-7.244884381317326,9.530317463267068
2019-08-03 16:33:07.614264,-0.26235058961983804,0.8681618599403815,0.24118276237421185,-24.486743513395687,-140.4497552924566,-36.001644231418965,-0.039898043482937615,0.9971180433060806,-0.0725155709524192,6.209169267534985,2.210382734688926,5.477214373350658,-1.019486216545816,-0.27800992498800453,0.2871998899176027,68.71783455042845,37.40325859737723,-61.00263365558975,-0.3720194015180696,-1.1963783504212606,0.09946584356315645,45.05035572829086,-45.81039302071502,204.0440911754501,0.27682437160387047,-0.9620587955940333,0.09013008182905885,-7.227173379501938,-8.801299534515536,11.758414858070719
2019-08-03 16:33:07.624264,-0.2820458341860552,0.8833500497981381,0.24628131611781492,-24.98242079160026,-135.13315588881304,-28.364579946684877,-0.02599787641459172,1.001555111335245,-0.08429164437170533,6.131296534857683,2.3265921101823652,6.132841984801836,-1.0604305651359325,-0.32473685897832344,0.28541006482691617,72.28660620424884,38.46761258029162,-62.570499141411574,-0.3139922753264294,-1.1490160368435232,0.03728352469840606,42.63228650525408,-57.996779447296156,205.15726288640636,0.2726946036002512,-0.9523873916721756,0.09710320788886564,-7.01090240475762,-8.793537907609927,13.543047411595273
2019-08-03 16:33:07.634264,-0.24077348556447933,0.7694216369580155,0.2767928750758646,-21.531516995877897,-152.61752752864152,-44.82197913988235,-0.03913072547331997,0.9997224871037345,-0.08854984727829004,5.443550279070687,4.030415586758507,6.283406690387908,-1.0820060800912767,-0.34402840735582896,0.2716133274591639,71.12092635465494,37.45945107820268,-63.25394622290197,-0.29865513970116003,-1.1289098274355776,0.03693814703921662,41.594103100461666,-64.6247127881789,205.35318984448847,0.24003378885129625,-0.9486002577555687,0.0926648674062792,-7.696232768255603,-8.531215895661175,17.153950843082693
2019-08-03 16:33:07.644264,-0.3139989136502852,0.9734063225987319,0.2326191702316936,-26.792946082013124,-123.22866996589907,-16.90030715633519,-0.01995790566929679,0.9992984711344429,-0.09016250826718882,5.313888813827329,5.400713572191857,6.2838983474811565,-1.0670579407300853,-0.31535813734940266,0.2583960387144299,76.80017097861274,33.646758121463094,-63.375384225066334,-0.3070653753635449,-1.1222226067867809,0.06036775352732563,41.29668793055854,-70.45423566504364,205.1853068103388,0.20407813717010614,-0.9736776258100717,0.07491594572794696,-10.271036942442736,-9.86404930752675,22.896116877789833
2019-08-03 16:33:07.654264,-0.3344266400613695,1.0184960400041643,0.21166863016469017,-29.824022321950803,-110.05828429780429,-3.941281438459639,-0.010283826220844203,0.9975714455972444,-0.08542855088568882,5.147705745507228,6.1434897087810985,6.304774244315906,-1.0625680730790368,-0.3067077821113131,0.250539109169701,81.0620936504958,31.045912475522343,-63.67874966572058,-0.3145266295120886,-1.1109177934349102,0.08101206973164836,41.252695353498005,-78.41583113261565,204.68743808117478,0.19929200387556592,-1.0015671687438792,0.06299673475241375,-13.419005298742462,-13.381302239181412,26.5309317917238
2019-08-03 16:33:07.664264,-0.3512297023005524,1.0345642316041155,0.20404758287214617,-31.86054839726906,-101.7175848416952,3.582218574061671,-0.016150714236807334,0.9975333085530615,-0.08102419176970806,4.753740065520915,5.8903262100262355,6.32794845360799,-1.04772232348951,-0.2985721849841559,0.2512036866221526,82.19533345323715,29.229936602425937,-63.39839004221388,-0.31858387572914554,-1.0903204751441886,0.09724227543679526,41.79491106231298,-87.29848972659937,203.7831502218545,0.18182709459022264,-1.0201655552869533,0.06807553889208842,-14.62719324824991,-13.086361586298901,28.311494708886595
2019-08-03 16:33:07.674264,-0.37967471395505337,1.0416940880133625,0.19774009456936134,-35.82922629653268,-88.35464025849832,14.352224681054714,-0.02753710343888132,0.9996492139142427,-0.08263541412107853,4.272227953586981,3.945054173323883,6.32992752604473,-1.0398952803152033,-0.2637480237968292,0.25083946716868816,82.5608140150794,26.43421686973086,-61.435139646503934,-0.3151485510162494,-1.0606741150412367,0.11069754983918584,42.74537679758057,-96.11954219901969,202.71380987862088,0.15509512303127604,-1.0289022334903668,0.07120869939019757,-15.490228670287516,-12.422375158616576,29.86175471870103
2019-08-03 16:33:07.684264,-0.3953935858510609,1.0510746905855828,0.19638530240723653,-38.456957365055764,-79.72099587783289,20.553062797262996,-0.03441528936721308,1.00421912494689,-0.09558262410514827,3.844815403974427,-0.33665137733392636,6.285597646339779,-1.0336638784442045,-0.24813730679178683,0.25295990574697236,83.52125037549155,24.95699624094284,-60.457859152824184,-0.31054211278247706,-1.0076310739628003,0.13621242111174617,44.74241800575246,-105.9793260195376,200.59067358023177,0.13038308328905585,-1.0419006124602348,0.08238505358411266,-16.033378624699395,-12.359505967337153,31.6847319735952
2019-08-03 16:33:07.694264,-0.41073318334755926,1.0737714546880126,0.1914639178271113,-42.407045630360116,-68.04292864968257,27.875951010023293,-0.02926412769835989,1.0030856401418695,-0.10260365971991939,2.891994167143656,-5.604348646786272,5.669582302943265,-1.0104218292822005,-0.2203528656187363,0.27324545579936793,81.58643794327594,20.78985728199595,-56.44739602019926,-0.3228095025923504,-0.9225620377898026,0.20170648148383213,49.19363866800978,-118.98043716636315,195.65231013890386,0.11665743390861417,-1.0601585847201132,0.09498499122173382,-16.560267509026637,-12.777317802766994,33.26883936472512
2019-08-03 16:33:07.704264,-0.41197916630602666,1.0852706509860381,0.17585167036910768,-48.764292101573375,-53.21220113845786,35.724464663437324,-0.014860862347577136,0.995227144257968,-0.09369816378056138,1.404337057593871,-9.061002498699576,4.492070215093636,-0.9953832036800926,-0.20797201512516206,0.2754140365444188,80.0676615842853,18.745843369987238,-53.47887900121515,-0.3357689474552799,-0.8718563788590148,0.2870791454470429,53.41836638055312,-129.36034613127276,188.7975338216029,0.1125270313090905,-1.075891654356084,0.10478701546421285,-17.734051498106787,-13.404824690826091,33.895324754010126
2019-08-03 16:33:07.714264,-0.4128198828949318,1.0864640809582156,0.17092495641711475,-52.00409656119139,-46.592497773428775,38.65101557480291,-0.0033892083897524208,0.9990488617508626,-0.09907194486044515,0.9547227836442749,-9.608361854633289,4.036351576816778,-0.9794551825472891,-0.19942693867021297,0.2620959850827538,79.08728034766413,18.176402028235874,-51.721189138495546,-0.31323027919030166,-0.8633906023285912,0.3147164714143203,54.89984978369656,-131.47646532900552,183.82560653726335,0.09283437823364253,-1.1143991456544071,0.21513751515744495,-19.1267943917865,-15.467440290986229,35.11529326737382
2019-08-03 16:33:07.724264,-0.4191231209108863,1.1046723351436394,0.16824228783033446,-57.68864960114086,-34.884934677185065,41.53094281143961,-0.0039886737657661795,1.0029486234288776,-0.10759177778681778,0.8525047409967917,-9.163306021865859,4.041699467730631,-0.9558398495056555,-0.17801391016475188,0.24829995002082694,74.79571684893172,17.318761688341606,-47.05213532674511,-0.24099641996618365,-0.7881619441854983,0.33591207556663377,57.14029802518808,-128.52993810109797,175.81274749155213,0.0883671011195219,-1.1669583861593997,0.382928205719702,-19.72568591081116,-21.67005776114478,34.48287097546971
2019-08-03 16:33:07.734264,-0.4279179548010556,1.1353212274775206,0.14213103608694994,-65.5897878367186,-18.84304311963698,42.242325707865525,-0.012775140842508042,1.000139583926589,-0.106403969741296,0.6093435701736976,-8.7678081023791,4.053741937441416,-0.9382929450937532,-0.15052746045904566,0.25162710872181465,65.14673918132121,16.319873199585754,-36.8711403842245,-0.17705255465562655,-0.7120917443252158,0.34836508937355926,58.90637959337816,-123.0318043707792,170.58955668922442,0.11193695926748864,-1.1664765332858615,0.40353145456698625,-18.24875372092193,-26.785646895071082,34.093344810998886
2019-08-03 16:33:07.744264,-0.42734804105459767,1.147696490283042,0.13623767696887468,-69.12866964061789,-11.399230225725278,41.29235720873633,-0.017280562767254325,0.9958876015911831,-0.09237891342813191,0.5460408056927181,-7.838881591800054,3.9134823265317333,-0.935272043872926,-0.1503193867753429,0.2703961188036639,59.48045862948157,16.935830844082243,-31.096152416507657,-0.11008147202046006,-0.6093618090655181,0.32088929117608844,58.17858183750972,-110.67946571096485,159.21875417511413,0.1736580919764456,-1.1537616568304694,0.2627803636765663,-11.508989761870541,-38.32790757134489,31.947924248464698
2019-08-03 16:33:07.754264,-0.4264824672120531,1.1633620056480967,0.10909733800227742,-75.5291540121572,-0.604222872841357,38.3496078590648,-0.014722506418666759,0.993297202866638,-0.07143133327508168,0.6436371650205599,-6.685276785943677,3.632076407751938,-0.9506495790055967,-0.1482149986277031,0.28359781853888577,54.422866224133955,16.294309299528315,-25.117633043895317,-0.07425388160188133,-0.5001813552809589,0.296417826092314,54.535624199080594,-94.54435587304161,145.9547470750813,0.05851616797733659,-1.1556459165996267,0.31843644683594363,-3.3610410549243563,-68.49662113183187,23.303483209724142
2019-08-03 16:33:07.764264,-0.4162089087005458,1.1560505073226068,0.051119262512333806,-83.9513228526338,15.99932469618921,29.459527774971892,-0.017114182755655974,0.9925911285968206,-0.06475365183036624,0.3360447887675849,-7.06213735848778,3.502578088532346,-0.9821606211143676,-0.13076345312195858,0.28132769484270526,48.94629591267792,15.388033709792412,-16.497061762930436,-0.05507843982912267,-0.42774325369330385,0.2830329004524504,51.48418531301754,-81.01208706878042,135.91901155277554,0.019785302873066953,-1.0799656657064292,0.4213047961145021,16.557220807217604,-133.74364823599643,10.018941295671215
