Time,LA_AccelerometerX,LA_AccelerometerY,LA_AccelerometerZ,LA_GyroscopeX,LA_GyroscopeY,LA_GyroscopeZ,LL_AccelerometerX,LL_AccelerometerY,LL_AccelerometerZ,LL_GyroscopeX,LL_GyroscopeY,LL_GyroscopeZ,N_AccelerometerX,N_AccelerometerY,N_AccelerometerZ,N_GyroscopeX,N_GyroscopeY,N_GyroscopeZ,RA_AccelerometerX,RA_AccelerometerY,RA_AccelerometerZ,RA_GyroscopeX,RA_GyroscopeY,RA_GyroscopeZ,RL_AccelerometerX,RL_AccelerometerY,RL_AccelerometerZ,RL_GyroscopeX,RL_GyroscopeY,RL_GyroscopeZ
2019-08-03 17:39:40.825652,-1.1196555787380225,1.1637111296299358,-0.24677397456187702,-216.98314411347206,103.8331501684748,-19.743576998866136,-0.2616547473192021,0.9603862392148138,-0.14851930962205317,-10.427461886913939,-2.400421361926771,3.779417607925212,-1.177995058009468,-0.08371769210370193,-0.08342318067234006,16.236895160386137,-44.90737369611871,-2.72628845743017,-0.13873196631196333,-1.418823056574063,0.444870782994339,-183.1373887023185,-161.21077272547248,12.10187595775476,0.8838942999155149,-0.8164839322836369,-0.4646832238445876,27.626999176301226,69.16132402102956,46.240389087203326
2019-08-03 17:39:40.835652,-1.1747930657924386,1.1485544864714563,-0.3419404548861521,-218.87851809438274,54.50522416727131,-31.033457855946647,-0.26286004540048047,0.9444177209133863,-0.14760055739005185,-12.049860959936758,-1.7241292330761402,3.681375959235366,-1.1629038852117233,-0.04881336057388953,-0.06817741201911443,26.909659662070734,-47.70520207990327,-2.004685852133865,-0.17981745058831516,-1.2279395405573832,0.6155405132862688,-141.39094839820822,-173.78900561980416,-6.9696810756072205,0.447301105052821,-0.8250469329635088,-0.3302684645699277,22.588829671126327,16.197561439057083,30.74161356814258
2019-08-03 17:39:40.845652,-1.2991260743450201,1.1259366094271908,-0.4198751638677931,-218.39736610017147,25.98433600194837,-37.44590480891845,-0.26125006894323577,0.9449269053528304,-0.1487398274325555,-11.095240920217005,-1.7591738040009424,3.8504214600208195,-1.1347765764175608,-0.011793647151718763,-0.051120039765894826,35.117604490874776,-50.23157357895681,-1.92869517052863,-0.28830769525767647,-1.003925173508286,0.7376159844152087,-89.14135002029208,-175.33873085088996,-27.675453786658647,-0.009567331856511416,-0.8357198245054871,-0.1914499455971948,17.60734382444975,-37.55940597241807,15.079055891385341
2019-08-03 17:39:40.855652,-1.4030273784421317,1.122347213235634,-0.5362934754254124,-211.27079303736113,-16.73678804163927,-40.13938571082515,-0.25778688862191895,0.9645691634516635,-0.1566121739308952,-5.949088962653328,-2.6670428723749624,4.447980894608855,-1.0986836278315666,0.026014333965961155,-0.03318273798747292,41.606932159771816,-52.43945555017141,-2.303033355600368,-0.41650405059618345,-0.802802691703628,0.8094050113377539,-35.57835584474138,-169.14583828152408,-46.666886370150365,-0.4172118467914086,-0.8465951073276171,-0.06982949880091882,12.910357116638561,-84.47008967494966,1.3433049998210114
2019-08-03 17:39:40.865652,-1.3507887491716626,1.1501820026435843,-0.5669655826407857,-207.6415726886752,-25.717234792774196,-43.90203176753602,-0.2539416592968997,0.9631154181094302,-0.14629681569871728,-7.551967346871349,-2.775933015158624,4.391181523985303,-1.0599462796701553,0.05534395823920814,-0.017301627887926514,45.04789981917696,-54.1691346609299,-2.8354796896587713,-0.6099300639086709,-0.7124336544572334,0.6246961234092279,5.158950017302286,-168.19268042407927,-60.48329399617187,-0.7262679450133509,-0.8562175376376039,0.019694370358193772,8.595913233443547,-119.26370359103032,-9.026335866560743
2019-08-03 17:39:40.875652,-1.192788128113851,1.208562840551957,-0.6686762873835258,-193.30967498154678,-28.56624141189911,-59.965833208842284,-0.25090709758110197,0.9707718865639838,-0.14549720099177155,-7.457183967699766,-2.969890828749059,4.553579261791009,-1.0236561461928733,0.0741994334255571,-0.004577201231178088,46.01187059929899,-55.36408812326863,-3.32258687347751,-0.8147395326552084,-0.7695198666556682,0.22363612011486952,27.08796837086165,-172.80370317924763,-66.70660992380088,-0.9465719359675253,-0.8648910817698595,0.07966800794301873,4.832050407358431,-142.92034697664081,-16.261252626201497
2019-08-03 17:39:40.885652,-1.179290341632748,1.0768055082908754,-0.7811602380399291,-174.32977149153044,16.83770202952433,-80.14608277603155,-0.26117816788073506,0.9657634888969776,-0.16194595996121555,-5.457782134849657,-4.586068303888728,5.38008071769768,-0.99481674011618,0.07915258057709447,0.003566899195877771,44.72678078508693,-55.98330622463174,-3.5082912969151248,-0.9681788175330786,-0.928602393061584,-0.19540269335873117,38.57498369958928,-170.4761007633314,-67.56960308160343,-1.0870818849660566,-0.8727083402135682,0.11335586793083086,1.5909726826057922,-156.6352580165812,-20.673412619447248
2019-08-03 17:39:40.895652,-1.2669265285922817,0.954567975593775,-0.7440666307697417,-160.70363050835869,82.8171464380312,-102.38844521535675,-0.25253132425275004,0.9673159489469604,-0.1552116253076894,-5.985597139649159,-4.411603374147583,5.242807840422375,-0.974188917849875,0.07069782692679168,0.007224832274904567,41.39063483281836,-56.01117561072589,-3.416553944122399,-0.9166259175995227,-1.0999209942857369,-0.24615092301239688,52.49458758233011,-142.33596273279812,-64.54554724430162,-1.1567558573210692,-0.8797619134579152,0.12402240429890478,-1.1551158965917687,-161.60367489565138,-22.574783186644027
2019-08-03 17:39:40.905652,-1.333351410120043,1.0405516882465815,-0.6629568368339025,-126.46628757250274,142.50987389212636,-134.20379357424878,-0.24955517501509394,0.9639173346088263,-0.16349322840831246,-5.761297971157918,-4.662626732504214,5.914429208486837,-0.960732389844653,0.05189458487628663,0.007391084289310649,36.53028140963677,-55.51170362933767,-3.1349081371305627,-0.6226568435124187,-1.2272765632070335,0.2406304955383226,78.8875939376425,-76.82452724855638,-60.8092834804987,-1.1645519183446873,-0.8861444019920851,0.11493207102451503,-3.4340112860116614,-159.02083579865138,-22.277331668137812
2019-08-03 17:39:40.915652,-1.34659858886817,1.0598034998748556,-0.5849452490537289,-124.93245590600671,150.4998326287405,-138.79633425188618,-0.24112432461738612,0.9705088116535184,-0.1600826950365954,-6.2922528492431224,-4.103214581120846,6.426281389510539,-0.9534972246926928,0.02593357919090294,0.005088942905271426,30.75477033112084,-54.56479577923374,-2.731715795340943,-0.30971253772770485,-1.3314953965120688,0.8903851047125022,116.66178740428244,15.021591170916256,-60.06856196976862,-1.119428133349035,-0.8919484063052624,0.08934932208493601,-5.273509441431287,-150.081978910381,-20.093025404274602
2019-08-03 17:39:40.925652,-1.4459600356711049,1.1255992252687133,-0.8575753932263038,-62.288600389601164,201.43942318514124,-165.8226407027679,-0.23477963091125184,0.9742829696210621,-0.15505315656326824,-7.346194674659851,-1.6883063392150452,7.128668397217532,-0.9515334909861725,-0.00399446536403561,0.0013416957889622896,24.67315141284921,-53.25035755918071,-2.275338838154867,-0.3563557860504961,-1.4961237558226441,1.1061582860408723,161.62340282861646,116.97008518626464,-69.65286691520376,-1.0303425676462363,-0.8972665268866319,0.050538611457442484,-6.701406318628051,-135.98234241564018,-16.33383173540041
2019-08-03 17:39:40.935652,-1.5288922354890921,1.1137776147023186,-0.9924549404585827,-50.46358975726151,198.87951724030765,-167.79109918227203,-0.23791282953778534,0.9760155471209475,-0.1531107653106547,-5.746283218876505,-6.191839102787208,6.210075240637694,-0.9538912573172703,-0.03469882402320546,-0.002827369393441379,18.894474470400525,-51.64829446794521,-1.83413918497366,-0.7247394529454536,-1.6800294528888566,0.8299237661144501,209.42419737024647,214.88921566044743,-84.65213273255102,-0.9062532865484156,-0.9021913642253786,0.0017643931193088748,-7.745497873379359,-117.91716449922896,-11.311718001861205
2019-08-03 17:39:40.945652,-1.449503993935642,1.1409702338012577,-1.044625287976458,-24.17644060735455,186.3385033162239,-175.52785054190718,-0.2458036279003901,0.9817273807220865,-0.14917759049745952,-2.238781941934146,-15.637662226159952,4.084238015400401,-0.9585346991381498,-0.0654232681751587,-0.0064162602737335,12.725220900396483,-49.80826095007647,-1.6150202135041827,-1.0294040272029592,-1.7559252668014194,0.47682192060433926,255.0938609266763,297.6199773428965,-90.82254207930814,-0.7561183553676973,-0.9068155188106871,-0.05370887895218993,-8.433580061462619,-97.08168334594727,-5.338651544003027
2019-08-03 17:39:40.955652,-1.4267018330483978,1.1486196443243635,-1.0727962503911863,-12.008005168334677,177.77270911724793,-180.07087037359773,-0.241820792663568,0.9808356574921816,-0.1473056948330292,-3.395690860035144,-12.284349284270222,4.952395594181467,-0.9668734058582567,-0.08768719309958292,-0.008355416954137839,9.604771779556554,-47.87589456354661,-1.3853091990557704,-1.123015340828932,-1.7024403585950318,0.2433001042237392,293.9486979163753,356.15332377013374,-83.20908648281309,-0.5888958394162063,-0.9112315911317421,-0.11261675077977976,-8.793448838655234,-74.67113714059509,1.2734002978281351
2019-08-03 17:39:40.965652,-1.6255170214988757,1.1120545622693987,-1.1425342703034902,-47.53125165591716,204.05004632845254,-167.96737605974604,-0.20983967377545448,1.009889480565134,-0.12327001839621589,-11.758944920250144,14.675886580142759,10.486936336589359,-0.9768807244107885,-0.10071380836869426,-0.007642667205820911,8.850610030445683,-45.90110525407692,-1.350739394660383,-1.1229288587894355,-1.620341174349902,0.10447908919071952,321.4777767691363,383.67439780209486,-67.24174397746994,-0.4135438040060655,-0.9155321816777283,-0.17169476838618575,-8.852900160734606,-51.88076406797222,8.212470183286285
2019-08-03 17:39:40.975652,-1.0317631173556492,1.2378354715562676,-1.032582863250606,86.42850579743727,101.86226264620379,-215.37518536194966,-0.2280470834140411,1.0023673660103074,-0.132057909563816,-8.776541902679705,1.1583316184907417,7.2907237516160865,-0.9875637396818578,-0.10122082144411115,-0.003238731614777142,11.09691542206627,-43.96209403650735,-1.5813155908167877,-1.1508728646620603,-1.6097180650736558,0.03659372961462773,333.79431918604905,374.9208212481187,-48.820427780919246,-0.2143908440334914,-0.918470535282321,-0.24394839034921842,-8.983551349500244,-24.686640910330535,15.811909184440037
2019-08-03 17:39:40.985652,-1.1355411377139577,1.2382978926779744,-1.0418983453456883,68.96701429613638,116.91854101155427,-208.00625510061587,-0.2091135665677585,0.9846850209443604,-0.12679367983711343,-12.912899685554715,21.385591122967487,13.128311927047713,-0.9977849789583915,-0.08795659839326923,0.0054549676028811745,16.355243567797174,-42.10443873860881,-2.146945090445055,-1.2288652348439766,-1.679575194134433,0.010877806320019674,332.79899374661227,335.4107648876069,-30.712186880265698,-0.056194602224999064,-0.9231736449053092,-0.28925267686660383,-8.434249946244769,-6.108336453244085,22.297741476700764
2019-08-03 17:39:40.995652,-1.2568103776260315,1.2399287296392643,-1.0410025259048836,58.510312685284674,130.8304229638785,-201.81497701401997,-0.21101955791753502,0.9843700704628839,-0.1268283100957775,-12.107183013144995,15.172205307077933,11.220853009483768,-1.006981332865001,-0.06514558614283937,0.017689724096482326,23.21881920523582,-40.32028519358665,-3.0414162716352466,-1.2930472451162474,-1.7504163524128196,-0.03317368198767042,326.7788037087417,281.6451572097075,-13.065202129543913,0.08048079004760722,-0.9281900430813931,-0.3230998428825998,-7.629164260241113,8.675789337358783,28.101951094362576
2019-08-03 17:39:41.005652,-1.2818771439865297,1.1911759166964606,-1.0000759824143015,90.81950529562445,119.72839871397431,-208.03996881221946,-0.22996506972880335,0.9846217589492461,-0.12976618459055436,-12.7066026116987,26.508877806085234,14.38872750895143,-1.0140976694007422,-0.038383798140689464,0.03244160287864701,30.426837511642688,-38.60590989244835,-4.113417291111277,-1.3037489405278369,-1.766335140130836,-0.13084513835135625,321.19048323659155,226.30934691758776,4.255499833852111,0.18372594602901657,-0.9337041892194214,-0.34116535570883805,-6.605951303073314,18.1122928695489,32.82455711413768
2019-08-03 17:39:41.015652,-1.3817271001548077,1.13605930958413,-0.9526739727991967,111.26039599149634,111.27184969795398,-209.17730893655303,-0.24886663232082593,0.9845629159242355,-0.13467575756831135,-12.340550551463954,34.64685735138105,16.99382117274718,-1.0173249332799832,-0.01103341889427162,0.049474637759212604,34.73896926345467,-36.816051729272885,-5.915894535475934,-1.2878810198187145,-1.7384213775305308,-0.26386286711975715,315.2771462338093,173.78659291228527,20.928695508483575,0.24703576663379023,-0.93977936734087,-0.34148238033576656,-5.410296476979348,21.46056113207125,36.237836482382285
2019-08-03 17:39:41.025652,-1.362067483603893,1.145827364700202,-0.8953889779407405,135.57566858463142,94.3971342344057,-211.62914290596552,-0.23225606144314234,0.989132025345677,-0.13340815900295364,-11.9653697134755,30.36201513240839,17.075560447157738,-1.0156783033074233,0.011678993127860426,0.06781142851901717,34.909653998347736,-34.94197777158381,-8.324235006266052,-1.2646412358742443,-1.6766426080607097,-0.3991765869716785,307.540701432459,127.16275666606019,37.30967534517602,0.28307358418311634,-0.9459956892662241,-0.3294345693206241,-4.054657854527955,20.506236603208492,38.71047598164495
2019-08-03 17:39:41.035652,-1.463179038819909,1.1041329407671119,-0.9535280812251078,115.48748227570768,110.01915195057809,-199.86126275134546,-0.23952299376111647,0.9902143682256622,-0.13224634291130222,-11.870481201267717,30.49329660561491,18.513832416757438,-1.010340714814079,0.027720326130902268,0.0861085383578866,31.10571565550264,-32.93842890741931,-11.094881913063949,-1.246867140393906,-1.6024224583524393,-0.5085608992621596,296.68756352853967,88.8640019748706,54.32784989373435,0.2963733044413052,-0.9521692912418409,-0.30787802089621663,-2.601547323181862,16.171496280820314,40.3667139983505
2019-08-03 17:39:41.045652,-1.2967693347526446,1.1579865381143213,-0.8364239632938322,152.78781077356288,78.47670481487052,-213.9208224206393,-0.2536915684813059,0.9893995664018034,-0.141473358108967,-12.151851679455527,30.08227478222264,18.98201406650234,-1.0013206089593572,0.036714360255763905,0.10411781126466281,25.549860044685147,-31.033506488505083,-13.61827990686605,-1.279032379854459,-1.4956401436884703,-0.5482700299756846,280.62114748449335,64.06080379494234,70.33727738885689,0.2914688331726675,-0.9581163095140774,-0.27966883329535014,-1.1134767704037858,9.378517162766403,41.330788918923744
2019-08-03 17:39:41.055652,-1.1083227969863443,1.234949318793216,-0.6978934087130411,200.890031670199,41.39247583327967,-233.5908267654542,-0.24139961933542375,0.9801892166876791,-0.14069563288511483,-11.926128309975793,29.40047548949258,19.427362029806105,-0.9905258300107284,0.037568725329828974,0.12059092692698048,20.02256462553508,-29.297271515330106,-15.338415137714705,-1.3635416646125578,-1.3826270639935136,-0.5018518098418244,258.703185134352,53.903190339662466,86.55783246631616,0.2728940761415138,-0.963652880329291,-0.24766310475083053,0.34704191634354226,1.049476246906513,41.72693912978953
2019-08-03 17:39:41.065652,-1.2727296134957127,1.2074754485384471,-0.7861333140785982,191.23439715669238,55.11975198621807,-229.14862443497478,-0.20131345305814216,0.9782990441000838,-0.1408493951758395,-10.6873303776106,24.703325137266614,18.81378630537924,-0.9795890331998697,0.03040715784015845,0.1346862648255977,16.374772038043826,-27.815478113642147,-15.779870573980125,-1.4701421699577217,-1.2927595155725184,-0.4038776276993887,233.1621784113505,54.83266293477574,104.12974152287025,0.24557296767205994,-0.9685742713631852,-0.21467039872464228,1.7167879865951992,-8.006969630934217,41.67279798974445
2019-08-03 17:39:41.075652,-1.3776188787451986,1.2251750573252447,-0.7796674840976091,209.33974737063193,45.57259243613669,-232.26540998619814,-0.1774415568125547,0.9765009787702877,-0.1369558461103661,-10.165160270004803,21.650646875293518,18.419787600645787,-0.9695074448553134,0.016236972075791903,0.145654709516892,14.265826411818383,-26.488539427187376,-15.0766473962471,-1.5359325169107376,-1.2920026488430556,-0.2901650961942989,206.25214539618347,60.968314329516296,127.28060661461963,0.21296645548585846,-0.9727540277368117,-0.1836748293483061,2.9351996158777336,-16.556352570661588,41.31077413797127
2019-08-03 17:39:41.085652,-1.3378543644196357,1.3367191620247487,-0.7205534956274677,225.8372117658163,30.503821893530745,-237.0138790024487,-0.15878314174615638,0.9744803809632694,-0.1443509673796824,-8.99215462540828,17.942733364970334,16.35921408147147,-0.9614537936727926,-0.002072978304335535,0.15307532402016338,13.18681966112943,-25.17502358459307,-13.5534517675247,-1.5309918398391353,-1.4037273660534408,-0.19972012539107284,180.352732260768,67.87252269549673,156.66355017734048,0.17979380008213108,-0.9760000236808453,-0.1572413859181139,3.9443520732780497,-23.897849504714316,40.748277350190705
2019-08-03 17:39:41.095652,-1.2496170401506306,1.3804529877649567,-0.6936279913466377,237.12806960173236,19.992260409832728,-239.95077922149255,-0.1740108349697023,0.9541745561920177,-0.15790570221618,-8.40801589400115,17.482350109678922,12.840292934696992,-0.9547023789335837,-0.023300729676594002,0.15750698866844506,13.031664753992525,-24.115808444538605,-11.490052393228499,-1.481130773688534,-1.5645391322091577,-0.1543003848828733,157.31082262561085,76.77668906984599,187.61805610192272,0.15335500712619624,-0.9782035375540817,-0.13802752566133408,4.770467645580788,-29.08511396172544,40.22840570651471
2019-08-03 17:39:41.105652,-1.1889354884201617,1.3679029630409258,-0.6457203930975601,250.48303869521808,3.6988823545185814,-246.90118030634193,-0.173298009875227,0.9671948854108803,-0.14209623102923757,-8.410153287373477,16.855475028572137,10.88765689208742,-0.9547327694984263,-0.040558362373585614,0.15642234818419656,12.53387177545296,-22.325781760198403,-9.306411314368665,-1.4402915820331739,-1.6709599863193785,-0.187016979640356,139.6061421318191,91.36425254251789,212.62342955673367,0.12469073582914486,-0.9796022097413901,-0.1225981365877763,5.370292867079176,-33.350979432216384,39.45393446583311
2019-08-03 17:39:41.115652,-1.326746722706947,1.2817787107973198,-0.570615250554651,255.51063203363591,-5.151032344682097,-252.2608840409967,-0.16020927371269622,0.9677365144299966,-0.15348119750903108,-8.590796910854548,18.442876233740858,14.839436929164915,-0.9612740258433194,-0.052208675865898946,0.15015410413811178,11.502312069683375,-19.95597312210498,-7.292571486007925,-1.4387817824408164,-1.6588218749517014,-0.30781777569685065,128.34284328296525,113.41288398697196,227.21564737198133,0.09665834792355651,-0.9802229552292544,-0.11156104863768634,5.774700392308826,-36.45514449391041,38.52816521562787
2019-08-03 17:39:41.125652,-1.4002987486082443,1.2382000577871874,-0.5419400969484006,255.98199364581916,-6.014273721615384,-253.20513997126028,-0.1614674024094595,0.9827168010397463,-0.14048658241721573,-7.577267139956042,13.875903849575323,6.466575869088613,-0.9751539593396756,-0.05573440951343581,0.1384965382677556,9.446791721792968,-16.89652461674384,-5.75345725271263,-1.4628309526756331,-1.5687069039542925,-0.4678846393996338,120.57784344847553,140.06437412515916,234.88754681045882,0.06939452642853905,-0.9801413054215097,-0.10459231511120028,5.997553129719261,-38.49674950296466,37.462201249882874
2019-08-03 17:39:41.135652,-1.4039823385407733,1.2432968783041436,-0.5096195699452317,258.93264246720923,-13.578600061633743,-250.98857497919255,-0.16211280106923592,0.9922865867434589,-0.11889906828777635,-7.643704441542764,11.693975526706406,2.8096038386728592,-0.9944799800180103,-0.05263077137379954,0.12264215602796634,6.824484802777935,-13.519564209744775,-4.646914773654124,-1.4581361752497808,-1.483607700589186,-0.6038342192734689,112.28260767763535,164.7353217688629,242.00011629914604,0.043035954363200554,-0.9794327917219923,-0.10136798930845423,6.052713987760022,-39.5749348155364,36.267145862582055
2019-08-03 17:39:41.145652,-1.3556799707029097,1.2760276790597673,-0.419739059993241,268.91915460811936,-36.085552514753,-249.33293556672288,-0.15935858230483285,0.9896045807908014,-0.12401641356780141,-7.653601585666871,13.2002786176108,5.219896117619125,-1.0161791758210132,-0.04570606297528112,0.10438564637851283,4.141521099304863,-10.348880864858055,-3.884415807347983,-1.4086666684503844,-1.453957615915926,-0.6650739897034023,100.21835665897515,184.58508350108949,252.76259866185595,0.017719314746648812,-0.9781729455345385,-0.10156412452958427,5.9540458748806335,-39.788840787782874,34.954102347709295
2019-08-03 17:39:41.155652,-1.1964181552640565,1.3093622562455318,-0.358624849714839,278.8740637762376,-50.024824541743946,-253.5769781307282,-0.16098694762627397,1.0025467354579911,-0.12696500521458276,-6.7280224772949815,9.460745475845746,-1.7167984410163628,-1.0375615417398323,-0.03708156671017465,0.0856397752128437,1.7574202773723326,-7.759791191426861,-3.4112196317653494,-1.3493888716841276,-1.460530114260453,-0.6663277365769875,84.6033261066578,201.574027669328,266.09172953395426,-0.006418709402008133,-0.9764372982629838,-0.1048567740747265,5.715411699530632,-39.237607775861285,33.5341739992485
2019-08-03 17:39:41.165652,-1.1382314641521207,1.2583206025126823,-0.3343672081671307,280.39829640506736,-48.875006592229965,-260.49530879339443,-0.19170589739210564,0.9929360053158172,-0.12184351788269869,-4.63356478152167,10.865007631916152,-6.1972363591286435,-1.0539880422361811,-0.03224899207958804,0.0677515834852292,0.6690013155918242,-6.855283890413157,-3.0275327584941234,-1.3515716219576719,-1.4629063685765542,-0.630080802512856,66.7358635185195,221.13693548137502,279.40686186882493,-0.029241435063662384,-0.9743013813111645,-0.110921991244017,5.350674370159548,-38.0203761359289,32.018464111183576
2019-08-03 17:39:41.175652,-1.1865121298599044,1.1021179526253073,-0.21537248576173237,276.2106399007519,-36.2631636954123,-275.90388986898694,-0.18170607402106687,1.0102481298002743,-0.11613424806950261,-5.2491856163561215,12.775298950803291,-6.745163168375299,-1.064592074362907,-0.03145446054699715,0.05194354581848887,0.8722160927004916,-7.605179698465818,-2.7302089573572097,-1.4120469082415106,-1.4492265998612135,-0.5799198506892939,47.04463535136722,242.65036731641635,291.65001381159226,-0.050612179219205945,-0.9718407260829163,-0.11943582933759184,4.873696795216915,-36.236286224142916,30.41807597749843
2019-08-03 17:39:41.185652,-1.2937832931352118,1.0815921686388539,-0.1717682698923351,275.17345903942316,-21.40751858786736,-286.48509066149586,-0.19059775776235635,0.9814680187900557,-0.13219003154211925,-4.970111321297889,10.157849365225307,-5.4542931920158075,-1.0699395634943267,-0.03445440407280677,0.03832326634915941,2.312602208681448,-9.78174512236659,-2.444443206792115,-1.4870648129793762,-1.4258364315937389,-0.5350971806568139,25.67374893572788,262.92951648212227,302.5267573443263,-0.07039425884953096,-0.9691308639820755,-0.13007434165558715,4.298341883152263,-33.984478396660585,28.74411289217696
2019-08-03 17:39:41.195652,-1.3089422526867287,1.1304522121339418,-0.1583161167372901,279.3956255547549,-16.675665136093702,-295.53189228044386,-0.21410155782610418,0.9591362639442087,-0.1412483330516195,-3.7931584808922842,8.150385031192728,-7.147864912346399,-1.0710565328996535,-0.039178982386715216,0.02704383665756774,4.433140120942071,-13.029406115098515,-2.3364875865029675,-1.4943506137606917,-1.4029165838762592,-0.5153780090275838,1.6335459766996272,273.62640726970693,312.55361222488347,-0.08845099093552938,-0.9662473264124783,-0.14251358149813897,3.6384725424151254,-31.364093009639145,27.007678149203077
2019-08-03 17:39:41.205652,-1.2830965800422933,1.1423502042365232,-0.13702202320315565,282.69788353628905,-17.60723961537345,-299.6122361163784,-0.21113946377546722,0.9654305856426592,-0.13976583396713516,-4.2081402624990805,7.40573073990838,-6.691771831521422,-1.0686780276196506,-0.04511499347473054,0.01816097106656071,7.1160645389603525,-17.08185909791013,-2.3528944583813045,-1.4052087220286869,-1.3841785394658885,-0.5357371157042147,-24.696279201944325,272.98426865273245,321.297100889283,-0.10464569245809333,-0.9632656447779598,-0.1564296021653834,2.9079516814550335,-28.474270419235808,25.219875042560663
2019-08-03 17:39:41.215652,-1.2599315779636906,1.163350824912582,-0.13379920954894706,286.96129483198695,-19.490764720130585,-301.62650091782297,-0.20434051560818853,0.9535471732478699,-0.15321064633735226,-3.4124222449473938,6.8261046137670665,-7.28498794932699,-1.0636189313722944,-0.05132212453884898,0.011757102294616704,10.12308748351514,-21.648306439218214,-2.5004974464177643,-1.2653234622167018,-1.3753022481030117,-0.5818410523268268,-52.40381251242827,266.78167775134654,328.56232192312166,-0.11884168039811482,-0.9602613504823568,-0.17149845695745655,2.120642208721518,-25.414150981607804,23.391806866233644
2019-08-03 17:39:41.225652,-1.085626007761967,1.010596962585449,-0.06913789312492401,278.2052069445237,-10.092110486302106,-320.5683844582353,-0.19265927298239285,0.9490072574078563,-0.16471376891866266,-2.886265217593098,7.77810868370192,-7.4054585684908,-1.0566941278755617,-0.05686006278106689,0.007914663060214076,13.215920975385306,-26.437950507439567,-2.7861301746029876,-1.15405535606785,-1.3768224270769178,-0.6413904293989907,-79.05086917392927,265.0402495639957,333.58635411056747,-0.13090227173648594,-0.9573099749295052,-0.18739619917449457,1.2904070326641128,-22.282875052912388,21.534576914205914
2019-08-03 17:39:41.235652,-1.0661689474072666,0.9114093367692772,-0.017048137865386753,271.16322365497456,-3.253706645724167,-329.73561127129847,-0.20759379630247202,0.9617760308565078,-0.14727872709893788,-3.2225075271593013,6.108882052380986,-7.093325480941169,-1.048718500847429,-0.060788495403380494,0.006716086081831189,16.156277035349692,-31.159993670990975,-3.216626266927611,-1.1211218877942901,-1.3933804853440281,-0.6960954397237913,-103.75021196712572,273.51570624557854,336.31444245948103,-0.14069078345409877,-0.9544870495232407,-0.20379888211663344,0.4311090617323492,-19.179582989306766,19.65928848046138
2019-08-03 17:39:41.245652,-1.1044267470774978,0.8473760358203379,0.06833879367611555,262.0664386060696,15.05507266948163,-338.29282612428767,-0.22049166511278878,0.9577601993718157,-0.18899049645541005,-1.7420055341345828,-0.8595153488011353,-4.409481941454866,-1.040599487436216,-0.06301812988572117,0.008144800890871016,18.691344281322326,-35.53759289250199,-3.7606058457786915,-1.1525719958584646,-1.4198197796820362,-0.738360462539288,-126.94037908841234,288.3482422152789,337.1143058192199,-0.14807053253184535,-0.9518681056673998,-0.2203825590840093,-0.4433887956242406,-16.203415146948192,17.777044858983942
2019-08-03 17:39:41.255652,-1.070969586780319,0.7813264039087374,0.13599932951799953,257.11999328624796,16.69220476280737,-341.0095176039657,-0.2365380326723971,0.9563274710336274,-0.2000459518641597,-4.87184753337087,8.126733534007371,-7.11093816266741,-1.0324591608365583,-0.05695706495946917,0.012935601793470445,20.70215533692451,-39.209883267488024,-4.679098354162999,-1.2087735263108563,-1.461754583741683,-0.7549935087148704,-151.62877016275033,303.3767277542725,337.1710923421389,-0.15290483595061768,-0.9495286747658178,-0.23682328337675826,-1.3192236309561258,-13.45351188199388,15.898949343757499
2019-08-03 17:39:41.265652,-0.9869938686003055,0.7340493525410845,0.16676309288482347,246.03669050654943,16.42742882316232,-348.02827291757984,-0.19496678509118628,0.9774063400823642,-0.11145191202370104,0.30501753823013067,-7.506541098161356,-3.037756176407789,-1.0248950578487201,-0.04648078289271903,0.02056218993933313,22.08507630081543,-42.17934497900333,-5.766690357776078,-1.2591479326995927,-1.516141652155665,-0.737248580369896,-179.39939510109213,312.6022667727854,337.22203129743394,-0.15505701069130795,-0.9475442882223313,-0.2527971082950164,-2.182532535813773,-11.029013550601064,14.036105228765964
2019-08-03 17:39:41.275652,-0.9378053503675176,0.7454303223269793,0.1688799853158557,242.29777496097384,16.255743891613587,-351.5876829877211,-0.23876625177747127,0.9718108976192262,-0.15357610124574272,-2.0117863906674014,-1.608542326531634,-5.264844422335139,-1.0190331498789804,-0.03128324996414512,0.03021201443120246,22.69607659166157,-44.31469015773186,-7.0170213630151155,-1.2819928264854725,-1.5775694114772547,-0.6858824452158157,-210.36709922795004,311.9092166012933,337.5683288279063,-0.15439037373480805,-0.9459904774407757,-0.26798008713891974,-3.0194526017476506,-9.029060508926978,12.19961580799323
2019-08-03 17:39:41.285652,-0.775957789744029,0.6474872664639033,0.16309096522013874,231.09354779113778,16.712825901804997,-358.8857937730446,-0.16524114421196848,0.9820542891436964,-0.09322621626320755,0.9887970679253574,-7.309230717666701,-1.248559259071404,-1.0126431021248057,-0.015149478735608343,0.042761656041825316,22.926223938286945,-46.01907855848723,-8.212684245703041,-1.2892747129700846,-1.6230390219541522,-0.6185801002190389,-239.95229479772783,301.4275152933766,337.07351102843353,-0.1507682420620101,-0.9449427738249876,-0.28204827320860454,-3.8161209203082285,-7.552793113128866,10.400584375423204
2019-08-03 17:39:41.295652,-0.7137974468427186,0.5298603856497645,0.22513519756715022,216.01882838142083,24.241193802172326,-366.1004906344686,-0.18181609760942977,0.9786550910551735,-0.10928222689927809,0.4381260716730909,-6.666713264061519,-1.39818518777848,-1.0065970047438104,0.0019142849154901772,0.05752468273490516,22.672279917244037,-47.20212588639375,-9.331255162367027,-1.2872531255454402,-1.6302764490145116,-0.5574335857058847,-263.57029889919943,280.92889398565006,334.57944588909936,-0.14405393265380614,-0.9444767087788025,-0.29467771980420665,-4.5586745830459705,-6.699351719363946,8.65011422503979
2019-08-03 17:39:41.305652,-0.7566350395888396,0.48549504601240795,0.29491291862257274,211.4776652321079,29.86915555157627,-367.427892306382,-0.20122500742966082,0.9810336414703726,-0.0967954748961608,1.0634106718450662,-6.167203296326126,-1.2583919393360203,-1.000878262932178,0.01881937308112175,0.07426238514133732,21.972599358591513,-47.91482279694401,-10.294457602179495,-1.2813288437626933,-1.5889225408745715,-0.5148862759239811,-278.78772346052153,250.96622164476352,329.5780460184054,-0.13474087898179715,-0.9455478833775257,-0.3042556397084994,-5.20936480780414,-6.5217596105370355,6.976276615959973
2019-08-03 17:39:41.315652,-0.7452028296328741,0.507336777631799,0.37233830966875253,205.80400376937098,38.847170125031155,-371.4022788542907,-0.2024574092257232,0.983806632605775,-0.0803002297530239,2.692563629426687,-7.867917514715841,-0.2849675372849072,-0.9954702818860923,0.034477117853257584,0.09273605389201704,20.86553709238806,-48.20815994563062,-11.024015054312866,-1.265562054719684,-1.5201781147704958,-0.4863707168113723,-288.2841827847493,213.6720074281627,323.288931544232,-0.12113865077562681,-0.946061744837205,-0.31363612145903574,-5.81322670128353,-7.232873061779252,5.348335071944937
2019-08-03 17:39:41.325652,-0.661107402748944,0.5193417634683397,0.3830900968318514,196.98010797359902,40.57353241668042,-380.73088971769425,-0.21002930928389738,0.9837810591138543,-0.10167696344761133,2.7248711112225847,-5.845387500651207,0.3853459068269189,-0.9903564668017375,0.04779885132386891,0.11270697961783965,19.389447948692354,-48.13312798794619,-11.441651007939567,-1.2382210593455463,-1.4463216310545124,-0.46566761015525004,-294.8375097416751,171.78687174829943,316.91735667476564,-0.10398102799704882,-0.9473095728414171,-0.32071478571530815,-6.323400865649414,-8.86812368993199,3.8008328969882954
2019-08-03 17:39:41.335652,-0.5921963982854004,0.5470021346646399,0.38957787398279137,189.36889196825982,28.537215691118156,-386.8437386419905,-0.2227426461241017,0.9857973185048142,-0.11094394071852046,3.409291475281291,0.7523822647946883,1.4482629778252862,-0.9855202228752975,0.05769590558492703,0.13393645294970047,17.582686757563078,-47.74071757938333,-11.469088952232028,-1.1970430904188665,-1.3906334463020573,-0.44623678511914056,-301.3425466049584,128.1957061854916,311.7274068208765,-0.08476476068897383,-0.9490304563783443,-0.32522155761263094,-6.719723281220482,-11.496627417511858,2.32844039316719
2019-08-03 17:39:41.345652,-0.8474206724632483,0.3712853494496756,0.3618219328202839,193.14150247615663,70.96379215793785,-379.6698792238481,-0.2274602310102777,0.9820326797583513,-0.11325449976265116,3.637810552637166,2.696790257135913,2.603748219695383,-0.9809449553029556,0.0630796127284031,0.1561857645184947,15.483608349058901,-47.081919375434616,-11.028052376362659,-1.1432415546802066,-1.3516735808789955,-0.4243057197250783,-308.0075260283394,83.61204506506114,307.92607196619815,-0.0625843322820085,-0.9521653651537207,-0.3268267758637054,-6.989910819856616,-14.600776058313935,1.0204268261176175
2019-08-03 17:39:41.355652,-0.3377727392307216,0.7071096544317381,0.410125157040105,172.91322659991235,-24.527079829385706,-400.40691056071915,-0.21804756300366324,0.982118166143245,-0.1163276922473964,3.6643030416623623,2.923241466843958,3.101618520895093,-0.976614069280896,0.06286130484626841,0.17921620495511764,13.13056755323851,-46.20772403159266,-10.040264769503889,-1.0799807018014713,-1.3021241824271792,-0.3968649077203094,-312.52751670351665,35.838895581071185,304.6688299534504,-0.0397896004797809,-0.9573813459640003,-0.3243722745335563,-7.106672054921875,-17.94357062215743,-0.10669061262755283
2019-08-03 17:39:41.365652,-0.23380814115333412,0.7717326895861805,0.40011653988370677,171.6301193217996,-42.860279763741694,-403.5977289738742,-0.17817671266454238,0.9837386421334671,-0.12877645092617776,4.846998070384165,0.9705345609712083,3.5407858607525293,-0.972313063532362,0.05727210386124288,0.20302130131376944,10.592327619074654,-45.14715948192621,-8.467601458030913,-1.009907237328265,-1.215159930673252,-0.3600797185698442,-312.6646664993283,-17.209011176913727,301.17473692018586,-0.01860699067547088,-0.9654230487761201,-0.316625856888825,-7.0476777895369205,-21.321369815851874,-1.0430353238974936
2019-08-03 17:39:41.375652,-0.15674728836852644,0.6606954021176752,0.4873351807577137,167.08398757993223,-25.48339810115991,-403.248056223848,-0.17397340050753504,0.9846048100075262,-0.1487849873307791,5.819664201088617,-1.7999208767870793,3.2576469315734102,-0.968705959917777,0.04069656057424347,0.2265629660757535,7.802685176532179,-44.02658717044836,-6.094784109492535,-0.9385330440125323,-1.1055237337556363,-0.313276467808774,-309.0759354697223,-70.0123573076114,298.166821570446,-0.0007190601254963327,-0.9760774689521439,-0.30383819514569593,-6.8145783739817585,-24.476789802778598,-1.782204674841162
2019-08-03 17:39:41.385652,0.12257457611347285,0.6600674007313582,0.6022530239219559,153.93984600970333,-39.82757822710724,-409.1717825124894,-0.18433104247052762,0.9810934284732897,-0.16269156391672446,5.805755193252204,-2.433928049826801,2.6957276753410055,-0.9648230097019294,0.019430633663596868,0.2506615943558636,4.948052171931374,-42.777537198909314,-3.129122292406449,-0.8750286162293076,-1.0300393021474235,-0.2608503037853693,-305.20456912149035,-109.31688166419794,297.8006009757436,0.012181450876105082,-0.9859094970797356,-0.2910734999715533,-6.405432802471033,-26.372428713969754,-2.216039279764631
2019-08-03 17:39:41.395652,0.22424342440376116,0.6252980951357654,0.6134723259099306,150.6159518159113,-36.800447418027275,-409.7906523161392,-0.19390702177614969,0.9816337462494192,-0.1768894958674883,4.764606749648674,-1.8868339671222463,1.0771022390773666,-0.9600204088517148,9.176338860707005e-05,0.27534843568491224,2.156287671464828,-41.354546650915196,0.025377338510698122,-0.822089296254354,-1.0092646291271692,-0.20423196827810833,-302.14731908398903,-130.04538482908137,300.9547632615786,0.018722799748925763,-0.9912803865343367,-0.28381406796427294,-5.837832809711666,-25.99734775145932,-2.2523427315143243
2019-08-03 17:39:41.405652,0.34879001974699037,0.5996046894779168,0.6010160010057194,147.7099000749823,-38.14260086888964,-412.2615505187064,-0.16015946045082935,0.9909332536249048,-0.10453896000521969,5.172818026344651,-5.959619206504543,-0.2680540891993546,-0.9504725104023086,0.00824503372136371,0.3054720543000345,0.08372783716552845,-39.313931726635055,2.6693951647465926,-0.7616377317934215,-0.9775423996424825,-0.12792621790738787,-295.28235085761423,-144.14766020150162,306.2051168324739,0.018586683648863515,-0.9903838922317969,-0.28486762726845544,-5.146105528042551,-22.990699468963538,-1.8811332337886257
2019-08-03 17:39:41.415652,0.5624597397922741,0.5251512792539594,0.6831764640827477,138.72300604908642,-41.61754440348958,-410.3454334757283,-0.12841085200961694,0.983745656566324,-0.03186721184327788,9.031835997054303,-13.407512911784725,-0.864040585024365,-0.9352208262059937,0.05176288527671154,0.3414368648694921,-1.085939561204435,-36.60675241846549,4.373681388689624,-0.6830607387819622,-0.8867708008742295,-0.02633731120730015,-281.41028568548734,-162.18912812739055,312.0266005886548,0.013142986394791225,-0.9848358162435853,-0.29203132605849763,-4.3931284359861085,-18.1603593487932,-1.2428281911932226
2019-08-03 17:39:41.425652,0.8494758746577374,0.3595154820800437,0.8176354447757167,117.09638019946546,-46.546534147718404,-395.92805924189497,-0.1745193300294208,0.9915226247061326,-0.12339679325342473,3.4996562486664047,-8.146469195655198,0.17940936823653508,-0.9184887006874701,0.10891864952281008,0.3768880089187243,-2.013274009147545,-33.66560744982003,5.361303865567899,-0.6051638141045068,-0.7705695408336045,0.07195500242598035,-263.27171293763104,-184.08578610805066,317.40032670718426,0.00437172178515915,-0.97632789365634,-0.3031273680419881,-3.632643017951628,-12.352658023353161,-0.47789537178479247
2019-08-03 17:39:41.435652,1.0103751853360414,0.244495050461263,0.7761693675590378,99.14994417491008,-52.89180831602526,-380.1757986059073,-0.16612110681361814,1.01738812447973,-0.1638652968811801,2.5547554430170836,-10.331099739209755,0.44793779133042844,-0.9063732749180903,0.14611130769365827,0.4031994365346792,-3.653854506939946,-31.115750734918343,6.192049842604483,-0.5683470423830439,-0.6831837345015556,0.12352354776528345,-245.6882706991876,-204.2380908990372,320.92197886879177,-0.005621519070881548,-0.9670413560832526,-0.3149260564235039,-2.9700485005221005,-6.817916709546374,0.2221065933860652
2019-08-03 17:39:41.445652,1.0627925363315769,0.2284497556101262,0.7429334112211541,94.9637811705661,-56.618191183119706,-376.02067119556546,-0.27539292497065554,0.9642570701857077,-0.1608228338664521,-4.388016966393636,13.154751516669622,-0.1772267405346399,-0.898871081059336,0.16311747665705287,0.42039820699340685,-5.940363726312148,-28.992329397387564,6.873423632498207,-0.5596050329379845,-0.6323521791723179,0.13135471169138707,-228.85315715626714,-224.36449320823377,323.01392243531745,-0.014841482429583904,-0.9587273434528549,-0.3251219372467296,-2.4653555035141963,-2.4514939602975163,0.7105095967838052
2019-08-03 17:39:41.455652,1.1128414966834002,0.12040184460819177,0.6891932152235939,76.12797419937948,-59.55579473079287,-355.3671996013126,-0.25733483751779357,0.972297452295364,-0.15469040540080334,-3.0664045231181847,8.848222758310067,-0.42326660898803453,-0.8952470291873575,0.16309336524923473,0.42964723702878416,-8.680537109250432,-27.263769539647747,7.4109364689404265,-0.550111852355909,-0.6063886552208932,0.11610012084697778,-211.23786461651198,-247.08375394837003,324.723850890842,-0.021487480782974255,-0.9531450186743764,-0.33128950271607194,-2.175277419188179,-0.12567591811274786,0.8526736366462031
2019-08-03 17:39:41.465652,1.2375811766580922,0.010538486494489662,0.5764771006161472,47.006541465393845,-72.04930969754028,-308.49740891599754,-0.2319971839273455,0.9859353471729619,-0.14627521336457944,-1.7116044218659092,6.995673269893203,0.9160094131311594,-0.8947660293783045,0.14919518230644413,0.43210944337468776,-11.682110097741074,-25.898497264118916,7.810099585622487,-0.5012846811781669,-0.5937550563709407,0.10013622623696179,-191.24297049082602,-279.49152046842755,327.2314360406724,-0.025532633233402782,-0.950082591438811,-0.33386699720811797,-2.0857100613939847,0.3111816952229314,0.6659786461398793
2019-08-03 17:39:41.475652,1.2293722363324553,0.005019103410561207,0.5292000777914847,43.90805266566113,-76.96643480981429,-296.13500821726393,-0.2288154510906267,0.9839775633718868,-0.14545974529834177,-2.090479474770488,8.112601920150048,1.4416500307854492,-0.8966929917083268,0.12457913666492164,0.42894774276499426,-14.752818133770354,-24.86493867322115,8.076424216235738,-0.4049189921400101,-0.5881162644264784,0.09270469817334012,-168.44012906392064,-320.2484169124928,330.8709649428187,-0.02730829769813309,-0.9491124645928896,-0.33357666165677385,-2.158339262652602,-0.7894032299121635,0.20602117637209955
2019-08-03 17:39:41.485652,1.449751388911647,0.20747483585208348,0.6627866554831886,41.407824014508115,-65.9991738661043,-217.30927752947423,-0.21361534407911117,0.9838962907637858,-0.1413209711144497,-1.9336462268213477,6.0441577520205465,2.0080765613722726,-0.9002928262535741,0.09240143716090782,0.4213250519335806,-17.700396659324547,-24.13151986937447,8.21542159447153,-0.27079521797155376,-0.5832239438746605,0.09359225856953944,-143.12396801818116,-365.3064904156439,335.2074587736047,-0.027137987420199797,-0.9498236907852108,-0.33111525818392196,-2.354732767738227,-3.080742365069319,-0.4719474204416445
2019-08-03 17:39:41.495652,1.553459069016577,0.21282925271082168,0.7598740362767483,39.106234091074946,-44.86304437462077,-183.911227802554,-0.16549829305133598,1.0039661954063477,-0.10137858755229252,-2.3835803898824968,10.57957793657516,1.679593078095791,-0.9048304430901962,0.05581829263064307,0.4104042876143231,-20.332581116389917,-23.666666954998927,8.232602954021207,-0.11492368211354764,-0.5826820132311556,0.09648973474106101,-116.418643053671,-409.20716040298424,339.69876600191844,-0.025345215642637517,-0.9518053226643729,-0.32717954891144435,-2.636458321425054,-6.216147381799833,-1.3126757920858605
2019-08-03 17:39:41.505652,1.64062682811104,0.22025985524223296,0.8480060595403988,38.34889365305089,-29.84019700777817,-160.8521646708666,-0.1352747083563997,1.0179000745219497,-0.07384295531208189,-2.638543650484749,14.17747413406418,1.1131483602293386,-0.9095707522943434,0.017985911910368142,0.3973483665410991,-22.457106946952766,-23.438806032514577,8.13347952857613,0.051665842824211286,-0.5807233340844024,0.10043676254485567,-88.6933609885605,-447.65300959155803,343.8681884251609,-0.022253495608480906,-0.9546464128789752,-0.3224662959612235,-2.9650836684872792,-9.848929951654986,-2.260912586345054
2019-08-03 17:39:41.515652,1.6264679702914753,0.1881968459935423,0.8553009510804521,43.19726847818306,-16.36501601909295,-142.62957360582962,-0.2089885159822926,0.9792930043870944,-0.14295616651952456,-1.4203719600146207,3.364763422265338,2.335687738426372,-0.9142636944294631,-0.018024851478649143,0.38358636323562595,-23.987035766109575,-23.356880476829033,7.871003761949463,0.22398721946918249,-0.5714095182944758,0.09992059159323802,-60.99322639645896,-477.76977235622786,346.83927531086437,-0.01818634056076456,-0.9579360140776156,-0.3176722614551415,-3.302176553699096,-13.632401746186064,-3.261406451003735
2019-08-03 17:39:41.525652,1.5795915104065525,0.14326220810668053,0.8415884727321928,48.22518874014265,0.06419791260398267,-124.30721202142394,-0.2878443171911805,0.9710833276397912,-0.16144855671086042,-2.366549465569536,-2.9145252058706763,1.8981807958137475,-0.9164715584000847,-0.0487743423441831,0.36933946536511914,-24.36082582797559,-23.59862948904505,7.635727981319857,0.37160160470698833,-0.5583642368781325,0.09988400279869691,-32.773457389485216,-490.7007575582174,349.04088720353064,-0.013467263742523336,-0.9612631789088928,-0.3134942075150807,-3.6093047218346874,-17.21987443694421,-4.258906033846363
2019-08-03 17:39:41.535652,1.487624744720377,0.1433564268798352,0.830978779815902,52.26372988470135,11.07816508504181,-113.71757260283378,-0.25156316946848767,0.9754794383859013,-0.15431806728161004,-1.6187480060687478,0.4963062525912143,2.067679593731772,-0.9167782892847591,-0.07261360133226749,0.35590922434522804,-23.7083728559775,-24.01079893051516,7.332941811641955,0.4896826919057027,-0.5356294781777348,0.09478564260441949,-5.085436495819117,-483.62170695363983,349.59312735307503,-0.008419778396791418,-0.9642169600214053,-0.31062889626292306,-3.848035917668277,-20.26465969548104,-5.198159982657538
2019-08-03 17:39:41.545652,1.3486605426772427,0.253400022010822,0.832630090463437,63.479043004463975,15.04235040878396,-89.2031127062698,-0.1703976514147316,0.9880420309938961,-0.11925047393329273,-1.101527647496037,-5.917078573481177,3.127079011584472,-0.9150159143839998,-0.08726981279426475,0.3441917231015828,-22.083273660074706,-24.488312852583693,6.926344917134233,0.5726592286658229,-0.5038566027875299,0.083702926370367,21.330491909287716,-455.26017437470585,348.2093395979544,-0.003645919684231799,-0.9665713431969581,-0.3091320018352248,-4.001752945460197,-22.520083040110535,-6.030333261378358
2019-08-03 17:39:41.555652,1.4444486356961783,0.2958141565862373,0.9320555229897444,66.70622283797991,-4.1298534233679,-58.0954104361374,-0.1658589293741766,0.9960283280989806,-0.11401010388646018,-0.9112883839724876,-7.5263510407999865,3.6380329460500516,-0.9125153991451304,-0.0982490850028537,0.3330637632589584,-19.795190974954068,-25.057935303226113,6.487289849897115,0.6392148470491774,-0.4592685143653385,0.06468113077608195,45.538664416675154,-412.01998629255223,344.4598236460216,0.0017019608395466338,-0.9671558728374802,-0.3123534245152566,-3.9422791686392338,-23.233321814229036,-6.674936022738472
2019-08-03 17:39:41.565652,1.4621868922404282,0.29989227142984454,0.9671113017180395,58.98020052736193,-27.582413833353677,-27.313237392362478,-0.15592591599114108,0.9955091040381348,-0.11965024807824595,-2.0639833390224163,-1.7967904614739156,1.7284484652836343,-0.9093463484400071,-0.1043914446535607,0.3231320030590124,-16.946238020520227,-25.628506997180125,5.991775796711684,0.7060789117150603,-0.4022297514548384,0.0354899698132872,66.4169189763495,-360.7194152551389,337.9924187785831,0.0064869633731315934,-0.966520057457844,-0.31812978613098536,-3.7409679558868643,-22.684201224465458,-7.135858880464394
2019-08-03 17:39:41.575652,1.4918670171987092,0.3084601591490027,0.9762443885270886,54.38607554631415,-40.53060676012083,-7.438817144589872,-0.16226166007909495,0.9954817674095737,-0.11235800943347923,-2.1055250603196747,-0.34910189275166165,1.1698789268528862,-0.9059160509309109,-0.10632152130491151,0.3145399940389111,-13.694091911899884,-26.140438367566713,5.441329368045044,0.7907266136737847,-0.3326983457517183,-0.005774964688238108,82.89555848596608,-308.2718105478278,328.47525162428883,0.01027737505770217,-0.965093102927532,-0.32506482708267803,-3.469392915158518,-21.248381492466844,-7.439397553056987
2019-08-03 17:39:41.585652,1.5330046763984047,0.3107391890033482,0.9805936489219874,53.27538018775426,-45.9884539759492,2.1177237785447813,-0.17058862407716568,0.9908961804307702,-0.11215150160840798,-2.2327154855282445,4.728566565196344,-0.43561029812130425,-0.9026317952801228,-0.10466394451543165,0.3074312877358205,-10.196429764219715,-26.534139847506836,4.837477174364291,0.896022050493215,-0.2573672942320772,-0.05421431171379442,94.67860871349134,-258.33941568797763,316.35960534157755,0.012119135289862255,-0.9638535563773011,-0.3302277775729185,-3.197789553777898,-19.379740438238297,-7.6234590884072295
2019-08-03 17:39:41.595652,1.5677292372575915,0.31058717727020696,0.9866238084863549,51.034833665615835,-51.57780315439615,10.394326628823292,-0.17453211518483758,0.9856902604478002,-0.11512457926282352,-2.558481712710729,6.4199038861174,-0.5807516967734437,-0.8999008701499239,-0.10004334384364669,0.3019494356869068,-6.6109286926064055,-26.75002187012146,4.181745826136525,1.006312730198579,-0.19203922035805904,-0.09522007200480659,102.55946877003139,-210.45695096037613,303.1978790625862,0.011500093978097302,-0.9631641153297165,-0.33230881541499196,-2.991620354634249,-17.406093881368363,-7.7099535894079985
2019-08-03 17:39:41.605652,1.6200008452840198,0.3145850969410413,1.0064778530093952,42.35211684172421,-64.56304619307542,30.739620955907558,-0.17154902784208367,0.9818560751337408,-0.10864040310194593,-3.0388349289186833,4.5422479213525655,0.2521810629520682,-0.8981305642025954,-0.09308434884808227,0.2982379894293362,-3.0952658121866445,-26.72849486853157,3.4756619338288455,1.1050163795119285,-0.15179639070181944,-0.11442728296692241,107.56692276661175,-164.31936597804656,290.667315066962,0.008889592896288342,-0.9633356936985912,-0.330913872676495,-2.880853155405474,-15.624655301811252,-7.7382534036310515
2019-08-03 17:39:41.615652,1.6447516574600392,0.33103797316424105,1.012754223360331,27.06447401806831,-72.54795049113748,57.48429200280617,-0.18046480737851853,0.9897330917029148,-0.12627596826363816,-1.5884326421445738,11.729692072352007,-3.066038947506812,-0.897728166100418,-0.08441158908726397,0.2964405005002749,0.1928817619128863,-26.409969275858106,2.7207521079083508,1.1853371419628194,-0.15993918667310608,-0.08809346943125998,109.76269264656081,-118.51280009205409,280.1883848647643,0.004440371767319869,-0.9637624662520918,-0.327493622680936,-2.82817346551188,-13.778484043505928,-7.667586961694614
2019-08-03 17:39:41.625652,1.5687901004303917,0.357282103653752,0.9522165966157277,9.128366872357379,-70.63036069609448,83.17954650471503,-0.18505819606843296,0.9884497901431624,-0.1276679371445672,-1.4947382482175113,12.176891090837493,-3.281616791884146,-0.8991009645056731,-0.07464969411971738,0.29670052043688894,3.095836914565508,-25.73485552522207,1.9185429588421403,1.2389724069255734,-0.19187655891442923,-0.03997931326927725,110.8346840759212,-76.14532275370962,271.2895541249688,-0.0010664047182556307,-0.9644292111170394,-0.3226397084405216,-2.832314656404059,-11.992758342863743,-7.520584489489526
2019-08-03 17:39:41.635652,1.4426487159006647,0.3621938568921724,0.8834857038693091,-12.535253526187615,-59.984620294093354,110.24596788035896,-0.1875924347612623,0.9904995932395708,-0.12281607102556756,-1.463409740439491,13.394670869963257,-4.228326913592359,-0.8998043573638892,-0.06529812561500457,0.29758079398445725,5.902375585207504,-24.80941367789416,1.6622781061343739,1.2654483572471933,-0.21052673478242226,-0.005289795580111455,112.2946618017173,-41.33051669822591,262.51244531313114,-0.006991812469159128,-0.9651859698750647,-0.3171406193786975,-2.883767034024698,-10.30554873887942,-7.305443301220429
2019-08-03 17:39:41.645652,1.3856453475931874,0.33640997189221655,0.8576784963562502,-32.567375975316295,-52.736662442636316,131.59904925020373,-0.1959631943785908,0.9885996454557378,-0.12303120708226786,-1.4547507693325263,14.002953338210798,-5.065843396321678,-0.9066156912194658,-0.05502746519015626,0.30275580417959536,7.457611409946363,-23.203608088947565,0.6318095339212624,1.2791511532250521,-0.20212604294405628,0.005987172551641371,113.85828927834834,-15.215163361133712,252.43782361827334,-0.012696927394111603,-0.9658827841077985,-0.31178484491890973,-2.973020904316481,-8.75492577054768,-7.030360711091965
2019-08-03 17:39:41.655652,1.28780452550116,0.28578608662517924,0.7885366767265334,-52.358589815571435,-44.661276222731544,153.40653843444605,-0.19635703358422313,0.9841225253299821,-0.13545131752572942,-1.5378999861035392,14.214377528200886,-5.273523763588768,-0.9167246103029594,-0.04544937134356428,0.31058555800018106,8.107577733738154,-21.044968960639217,-0.5037316952727409,1.3110318645473005,-0.1755852354800977,0.008323182002382684,113.32253213487384,3.6774708226556965,239.58013846331158,-0.01754282540183404,-0.9663696953968719,-0.3073608744846045,-3.090566573222097,-7.378959976863261,-6.703534033308774
2019-08-03 17:39:41.665652,1.5113931874299287,0.38169181993563295,0.8747353902764353,-25.019043999339132,-64.31578764169895,118.9953100354119,-0.19508852149268774,0.9796513455215194,-0.14636484720246923,-1.7941443076483108,13.658867017522365,-6.205196083398929,-0.9305752024292104,-0.03719159884780614,0.32122832502935283,7.6887943521117945,-18.272181425562184,-1.7497817422342985,1.3903505545545993,-0.14087190487466283,0.015386467489764428,108.56326231342652,16.334606807502418,222.4933022055548,-0.020905899939287435,-0.9665711185634931,-0.30447678089769625,-3.208372967155093,-6.192933697718736,-6.329051198016032
2019-08-03 17:39:41.675652,1.305338503895638,0.2984360838663349,0.7688098974187676,-51.130542520409165,-45.801480970050314,151.3256279695721,-0.17705023009896825,0.9859835155230765,-0.15316318519741648,-0.5978755438746448,14.952050862068553,-4.895055955964065,-0.9479227752480278,-0.03096271068264169,0.3344179945189872,6.176442665315831,-14.900486121497114,-3.0142544535413434,1.5612999732296748,-0.10400700749988473,0.04673513890711856,96.47574297283147,26.044306854552627,199.33466950089934,-0.022099432308594315,-0.9660700929070896,-0.3045638904503984,-3.383932318027004,-5.3168544853040505,-5.929930344520488
2019-08-03 17:39:41.685652,1.0478576349422104,0.22990123618427583,0.6295763644925245,-79.36268354956196,-29.97658664109154,188.12076869419184,-0.21511134912897129,0.9734736736741623,-0.13856648492961016,-2.9941338845962937,9.490615679938674,-9.18527789517221,-0.9660502309402542,-0.027051705571588848,0.34866361538673235,4.03941086415584,-11.191430061690243,-3.8802249307403542,1.7467103266329969,-0.07958849941821632,0.0748254799039706,82.23263020584432,26.339612105271804,172.8752379348062,-0.020981014772183282,-0.9650314701337865,-0.30735519935526945,-3.559907121532911,-4.699932264701763,-5.501054129398082
2019-08-03 17:39:41.695652,1.0098339123995685,0.22655631994388772,0.5750030253286176,-82.9058598635931,-28.519302656427264,195.0913297776561,-0.21188251655841317,0.97863231742123,-0.13978820762845812,-2.4315978499424897,11.246658834679994,-7.765847033924986,-0.9822039726856961,-0.026181049540559442,0.36234195596276264,1.7546150760309511,-7.489516299589066,-3.975018216033308,1.8603116447601222,-0.07503579685703547,0.06909738349513866,71.65103741578154,12.994115045147232,146.54854205939006,-0.018237244941662803,-0.9637092843561378,-0.311635048482865,-3.7145377408063305,-4.260548513318946,-5.031732658295946
2019-08-03 17:39:41.705652,0.9096511466534981,0.1772945720994373,0.4982373720390969,-94.97783642785463,-20.1353994230934,212.5210287295352,-0.22539165560470092,0.982504609034404,-0.1470911339750215,-2.8350120410855477,9.935019816978551,-8.111201316395034,-0.9916576041315186,-0.02857266330631754,0.37254949796850095,0.20399496687019686,-4.016309363040275,-2.344303606986229,1.943637401238815,-0.07487058302783423,0.04798365886066423,62.331633273906455,-2.650779285811895,120.3420710770394,-0.014170238371781602,-0.9625090819318617,-0.3166728543851196,-3.76296391880343,-3.9369813900917086,-4.52684580005916
2019-08-03 17:39:41.715652,0.8838361457295407,0.1636029095816598,0.4684408916311126,-96.70662443876229,-19.74506912105219,216.40258635343457,-0.23010422409822406,0.980755919641235,-0.15187091567543315,-2.9251343121397033,8.999746052595553,-8.048253356295657,-0.9943973591580433,-0.03434864880632651,0.37924717708731764,-0.5890437801853042,-1.016860609757099,0.769707795474518,2.0416899563143924,-0.06335886059899938,0.031246160857749557,51.47457410611564,-9.928292448970149,93.65285757995115,-0.009372208509117734,-0.9616801672054588,-0.3214511105693112,-3.662244486024727,-3.604651180017963,-3.974418756902437
2019-08-03 17:39:41.725652,0.8780363427993646,0.15874498168472118,0.4451550095575677,-99.003179607038,-18.905360592870085,219.63717086897668,-0.21812499002377256,0.9700266315613708,-0.1505335439469974,-1.7944256583659255,13.956253433888438,-8.910963554803267,-0.9928809780217969,-0.04147587585443759,0.3838012532275088,-0.8477047311824578,1.4156485500131075,4.581785719474933,2.1496637937317407,-0.04291361220806813,0.023192170057105225,38.80392421332595,-8.774685864846237,65.805897472076,-0.004405977446520722,-0.9614274683557326,-0.325277552225109,-3.3801726560593672,-3.1826197168901404,-3.3734833377665523
2019-08-03 17:39:41.735652,0.80023306209595,0.11208042723423962,0.3617504545644402,-101.52991178769369,-18.272134349064746,232.93872089363703,-0.21613791730215837,0.9673935459251894,-0.14989422411654318,-1.5992123885833958,14.713892262635152,-9.041591103577664,-0.9903817836837804,-0.05262800172090085,0.38797216308680416,-1.4333730453008946,3.1836470061600903,8.21950197815516,2.2369104868394176,-0.021781950877554412,0.01974196105620745,25.562035958906165,-2.580503732236769,36.66869810681973,1.3833697294297865e-05,-0.9617017097674894,-0.3274221289601768,-3.0044780251304815,-2.75492255463351,-2.735129833463604
2019-08-03 17:39:41.745652,0.654541653194598,0.07339556760438039,0.2733295178988111,-100.89746867370408,-18.444830030561498,248.31183885914447,-0.2515246353754904,0.9646192728322839,-0.16111001036375774,-3.793554679817153,1.393053419183114,-5.362816297954358,-0.9893399961005501,-0.06609479941318526,0.39329978157756856,-2.628062727233355,4.201219613674796,10.897017454822539,2.285832869300853,-0.00677219279941246,0.02119963022938298,12.134241307658389,6.133790610751383,5.5833282113340275,0.003046086620692859,-0.9623891038556651,-0.32719696414834776,-2.6521953700284002,-2.4396155773667734,-2.07412580716771
2019-08-03 17:39:41.755652,0.5361022058866398,0.06307203622586718,0.22236204242724028,-96.75613611302995,-21.970898731356115,265.9269793391663,-0.24117458665300984,0.9766277493910274,-0.16266298832253706,-3.545641299595725,3.207577063608759,-6.234168529934608,-0.9908400657000961,-0.07989595602102678,0.4002338459984225,-4.4311291290799,4.551709215324308,12.327504629581023,2.2769606286820134,-0.004707247502379053,0.027062073644486522,-0.8284286627488715,14.72443635944581,-27.768836176687714,0.0038733271341192,-0.9633667971583043,-0.3239542777965773,-2.4411307182930098,-2.357826723152808,-1.4056285875829584
2019-08-03 17:39:41.765652,0.4348725177132415,0.059295576514054434,0.24085896916888117,-89.13994957626504,-30.42262014536659,280.1320225991857,-0.21752435914811766,0.9779420425038523,-0.15061828066099653,-3.349294465329645,-0.7563011041577526,-5.148462982541437,-0.9932617866225005,-0.09160507048313946,0.4072390132155524,-6.233249105956883,4.2622278575949935,12.840180873569484,2.184032210278188,-0.023831808061420566,0.034634965595890875,-13.070168072154022,20.132023382211738,-65.03829609759575,0.002127839180557347,-0.9644599201456053,-0.31803609998813764,-2.4274530080628107,-2.550568047941411,-0.7516141391041024
2019-08-03 17:39:41.775652,0.3276944255565493,0.09633626109736919,0.20914074171707198,-82.28854290433539,-39.205540575136574,294.1864515125828,-0.16475862755318554,0.9855226776912572,-0.10320988354729563,-2.3725719100425584,-3.229238906962878,-5.773887256342108,-0.9962262834858671,-0.09837494947568368,0.4137031633551656,-7.661311935456887,3.49146421590501,12.56434997113018,2.0393199720908424,-0.05590612034410411,0.04718894706722723,-23.517695010626312,23.632086978662947,-102.02010801347369,-0.0016638078493408552,-0.9654028302218008,-0.3117849093977367,-2.5361074094011378,-2.883823223850267,-0.1476282868500991
2019-08-03 17:39:41.785652,0.28758455957054574,0.13140729397648301,0.18322892167079657,-79.99179507325836,-41.44099239900467,298.3498140214203,-0.11479267892160139,0.9864308614619208,-0.0679200244524499,-1.0251782968601049,-0.340781725883049,-8.612567272487947,-0.9989199543206609,-0.09876688897303643,0.4187209813935346,-8.457350706969073,2.3726419641795093,11.68832839634889,1.8908094662295183,-0.0878978161106418,0.06842639304728784,-31.19855242749941,27.986044530859203,-133.56969850461155,-0.006890579733018541,-0.9660112510330094,-0.30734219675760555,-2.6889082344362367,-3.2467137816251244,0.34657257966832705
2019-08-03 17:39:41.795652,0.29735449256249286,0.12181022773217812,0.19506438457958775,-70.97771829644488,-50.131780752910345,313.22184898916487,-0.2623080317690531,0.9742663856422507,-0.16512272278802356,-4.419358212677844,-9.970010843718079,-0.6589719101253231,-1.0013627399433742,-0.08492148759610822,0.4218682730504247,-7.557820317615243,1.0291562357113233,10.323797466689973,1.760014919670195,-0.11332206938037943,0.09616254720408902,-35.969969742266635,33.7850465055289,-158.29058501019284,-0.012119554981877492,-0.9653306079003683,-0.31024529149458546,-2.775707537136067,-3.403530800939766,0.7858684631009721
2019-08-03 17:39:41.805652,0.2088716093200693,0.10182390030121351,0.14036217108311838,-61.497957349434365,-63.40344639858047,332.2261811106879,-0.312561985798955,0.9697350578649677,-0.19829395855563084,-5.81393307071609,-7.853127916374694,-0.4172561677254163,-1.0026777344742555,-0.060692273108319074,0.4225849656749523,-5.383301081241911,-0.43318791230886966,8.656920147266081,1.6450749417339336,-0.13075670137323836,0.12270799727222323,-38.594955504273656,39.54574663277312,-178.50870950157417,-0.017448597689398132,-0.9637919761750793,-0.3188681079789856,-2.78432138644326,-3.378190908132658,1.0957580544712746
2019-08-03 17:39:41.815652,0.09593619661375698,0.13781835370224338,0.10254383570508617,-56.28840491930265,-67.30343908758404,343.2452035955988,-0.24245093179770236,0.9864114074440522,-0.14859676333546565,-3.2337113819507026,-10.959420380968242,-0.9627338808545826,-1.0024588686469895,-0.0323040940262553,0.421587867954764,-2.5444030851354285,-1.9337464751579283,6.87600999318203,1.542381876476406,-0.13929928334603656,0.14067649472125016,-39.9261896819901,43.96335579056899,-196.7749975279111,-0.023351045066307512,-0.9621845743044646,-0.3288581839152824,-2.7550557252880634,-3.281579279795541,1.2301811011678694
2019-08-03 17:39:41.825652,-0.02545647313941254,0.21300566819697167,0.06953305115477648,-46.55190388294954,-69.3186719728355,356.5049358832552,-0.24583308569797052,0.9856871788421675,-0.1490604659283297,-3.1469394498150574,-12.702042303734999,0.2323386396539917,-0.9997259421123469,-0.011032045199327569,0.41743185398561977,-0.7347946229211333,-3.443195765844509,5.021993299517108,1.4492299743015926,-0.1399922415572144,0.1480246628081241,-40.40737044676371,47.3518514735027,-214.1002811669749,-0.030784856872375616,-0.9614568717349637,-0.3359670468088632,-2.7396194618667407,-3.275301662923398,1.0725585861478515
2019-08-03 17:39:41.835652,-0.09913089851574547,0.2767910692715512,0.0441492214069072,-37.485550417226854,-72.74910388392445,365.9665550821577,-0.24988841512998133,0.9833635126680047,-0.1578507651220259,-3.0185577044666356,-12.921815280684676,0.462376891839557,-0.9939221841754905,-0.0037842609716783634,0.41046075312746627,-0.7053228557004049,-4.890268925521965,3.286459392942603,1.3609106186440576,-0.13659483265604516,0.1478713111809513,-40.12235725332058,51.450681209315036,-230.25837679888417,-0.039595412213767035,-0.9618488578730391,-0.3382402978161679,-2.7521973011853333,-3.376389083421289,0.663108441568562
2019-08-03 17:39:41.845652,-0.16719239296923943,0.3174787314830462,0.03930146915620808,-25.91480533229065,-77.00127121238543,378.2474403338718,-0.24067732807087347,0.9713364441344116,-0.15639132218720173,-3.4631234477237562,-25.009154351666893,5.027799425140608,-0.9858213041215562,-0.01070870516392135,0.40155807931578774,-2.4813671050620516,-6.190276836066725,1.717821649912807,1.2722464028803981,-0.1306688553507199,0.1427679619214416,-38.986808089946855,56.67984119334493,-245.16370988523457,-0.04922850928136086,-0.9630918788290854,-0.33578625402284207,-2.802255065445503,-3.5370634938198426,0.11963997475269811
2019-08-03 17:39:41.855652,-0.25047729988278855,0.3470044717889712,0.04486716721962198,-14.399816228242402,-78.01102552681373,391.1319518573602,-0.22932399549954388,0.9787097457859627,-0.140585818681759,-3.3247548590888876,-22.039478936819812,3.773771196976628,-0.9761868550994957,-0.02558162762835111,0.3931239029902228,-4.820502767476655,-7.304990734400546,0.42886179013317116,1.1729277311583723,-0.13327262745846533,0.13767291623180836,-37.521630733823805,67.69074534403691,-258.70574009141103,-0.05868337487032533,-0.9647720743469337,-0.3298639015896811,-2.858200735372834,-3.650637192311313,-0.4378293285501997
2019-08-03 17:39:41.865652,-0.2887432965553794,0.3767814896565465,0.05051363570271406,-11.723464972340617,-74.21087911089099,394.19195521830005,-0.19728216253392908,0.990653594825645,-0.10945136377739884,-3.95436251127396,-25.133078239786045,4.7714456868327755,-0.9663780352457149,-0.042798515588025166,0.387258375243162,-6.806499668166447,-8.181041008648087,-0.5717679036688784,1.0573493264941773,-0.14681196125665852,0.13534521398702887,-35.6977129247075,85.27635095746587,-270.79729201739707,-0.0673523417005774,-0.966588468081083,-0.3207468708960994,-2.926152864012377,-3.6619139641854233,-0.8875227608276223
2019-08-03 17:39:41.875652,-0.3559599191028543,0.48628949811587835,0.04916005381194892,-2.5366508690093625,-64.45389396680528,402.31641347978825,-0.182409659851279,0.9952880971858307,-0.10157404153491939,-4.526409929251918,-25.78695603230743,4.924793364279931,-0.9576303549058647,-0.05634205065662694,0.3860481658338095,-7.431696618607542,-8.769196865774168,-1.2619198041795223,0.926242418821936,-0.17172514929196742,0.1378047904534676,-33.59680050481647,108.78728576317778,-281.3508143425154,-0.07451793014978439,-0.9682085500818498,-0.30898404695261855,-3.0016957284971015,-3.5013136833021568,-1.1081550451209272
2019-08-03 17:39:41.885652,-0.45913108980717743,0.6317239437436243,0.09745231789539763,9.18170711371553,-55.364656551507274,410.4239687630135,-0.17160253420980212,0.9947062005322361,-0.1019068798141573,-5.445107540608361,-24.565284709982063,4.550783104224502,-0.9506560035960594,-0.06434132514755518,0.3896915958130736,-6.572949088001354,-9.026059677233773,-1.6499300844412503,0.7881966634258417,-0.19452949879158232,0.14058501588122851,-30.538292740738108,131.26851809939376,-290.709398786686,-0.07946266059561355,-0.9692998103995506,-0.2951243147697599,-3.080413605959978,-3.0992562235214978,-0.9784409044714759
2019-08-03 17:39:41.895652,-0.53147019371546,0.6735491083579289,0.13939240088136426,12.149084575468105,-57.93611881616211,414.38283426602715,-0.1613899946070322,1.0003925410853238,-0.08747847679814262,-7.218382646923599,-20.445987206069404,3.24643885815904,-0.9457076385902983,-0.06818434722919767,0.396560073712595,-4.867002880358044,-8.913245165380749,-1.7845469002329601,0.6552366013854138,-0.20181642343073,0.13994030034831886,-25.91915926002754,145.54216090817596,-299.00170297943083,-0.08146905341573223,-0.9695297390845016,-0.2797165593580449,-3.157890773533976,-2.3861614587034268,-0.37709506192062436
2019-08-03 17:39:41.905652,-0.5939083987788385,0.6961206446048649,0.16121255264914655,14.609543552058813,-62.84633059753686,418.65409523112834,-0.16705196364279332,1.000907762798873,-0.08308858009545195,-8.398063735805758,-16.938614672646217,2.3212635040523155,-0.942257859750158,-0.06812583621595776,0.4063324583784652,-2.2439514930552305,-8.529522931365646,-1.6820952047377618,0.5358604326510632,-0.1885054056859262,0.13383002538499175,-19.734154072110954,147.8867115087468,-306.4129895107445,-0.08078208346518703,-0.9688960687846511,-0.26453241842678077,-3.2441372366324996,-1.363046313459917,0.6945613126170329
2019-08-03 17:39:41.915652,-0.6925008275645178,0.7381332268122506,0.18729896081753758,17.319678632310286,-67.13793400698731,428.14431368681784,-0.18064496918345554,0.9901905586865823,-0.10102332695432759,-9.597266954658718,-13.390083862869316,1.6273290030753962,-0.9422230925812919,-0.0666982469348453,0.4144214356645968,-0.7009358965305736,-7.550577845924337,-1.4878504744867271,0.4383222631094119,-0.16757854852484144,0.12854493939641867,-13.580600049867222,141.68845074900273,-312.8150247182831,-0.072753677249468,-0.9657196710458607,-0.24508353566566207,-3.2752528812548207,0.32675659163697246,2.856308421910546
2019-08-03 17:39:41.925652,-0.9840537978231952,0.8123770469260538,0.2736971806681996,29.311781434173252,-116.21471906060175,438.41534606542746,-0.2014618386071986,0.9726764484594009,-0.11540672806117662,-10.98613517505611,-9.126175060730663,0.2831870442840824,-0.945330508416103,-0.06439356868758997,0.42006146039994063,-0.3833723616010736,-6.031107093516392,-1.231570341247092,0.3698168065790692,-0.15321896598696697,0.12958294362259506,-9.144540607684087,130.91143168068683,-318.2110768738537,-0.06206528455908937,-0.9615704510907765,-0.22772560107216017,-3.3139709920432137,2.3272278542887452,5.488075864085657
2019-08-03 17:39:41.935652,-1.0447714213148345,0.8170438451421096,0.24648340039979938,31.369130557393724,-156.14292107468623,440.96659327942064,-0.21838593243239887,0.9689047356753221,-0.11720551481971453,-11.182327915346578,-7.923819333672165,-0.26635284139333826,-0.9518437998832954,-0.06252266331745202,0.4210617743758066,-2.052631101968381,-3.9475106300202434,-0.9935394126936419,0.33083219074480075,-0.1556092593984817,0.14055943827741674,-7.54990701693959,118.56045773325862,-322.72013923885487,-0.05422311487286975,-0.9583563876327281,-0.21879034771148034,-3.4223055793298642,4.192519750695106,7.812865229043025
2019-08-03 17:39:41.945652,-1.1351471933175608,0.8456573558644764,0.1921020734375451,32.87592947933072,-216.82202815668975,447.37535349623346,-0.22486343957641566,0.9710920564116353,-0.11569501403120094,-11.041194224334674,-6.730837167949529,-0.7284813158167939,-0.9608033016940477,-0.060764807777461106,0.4180230519807541,-5.2600694774316015,-1.4742131875952977,-0.7872184479227176,0.30452096766827347,-0.17111149886379554,0.15172242379695658,-7.534742443994226,104.44905087886016,-326.9566290671639,-0.052389299930221005,-0.9571805985516189,-0.22160960043901187,-3.6264969142824452,5.647812081479135,9.350159711038792
2019-08-03 17:39:41.955652,-1.111536142798601,0.8941364710625667,0.10793550384326642,35.25424860608581,-235.32667201174812,448.4330413313765,-0.21843807126239145,0.9710585121151203,-0.10180725403789419,-10.768993515227754,-6.044601771013582,-1.303137341718103,-0.9699230186305641,-0.057577493590287646,0.41477266721996703,-8.276743607841485,1.0492900835717158,-0.5218059814043352,0.27194900284765544,-0.1974537401492422,0.15473068168441528,-7.97736763048669,89.04593518651981,-331.5325281862272,-0.05496456892111531,-0.957484683469573,-0.23370073195398225,-3.8807841051760303,6.771007402429528,10.227296724430246
2019-08-03 17:39:41.965652,-1.0633814039012301,0.9435618890252722,0.05079311042459728,35.981245950519586,-245.26867544479225,445.93438362602257,-0.21067560074680267,0.9721884486487501,-0.09247638610897962,-10.350950552389476,-6.778213672592546,-1.257584092442646,-0.9767916427204137,-0.05170743452962219,0.4149251313529452,-9.42987100071393,3.2560395090688163,-0.1156468776207787,0.21470216592948985,-0.23172331793798706,0.14091407491626695,-7.680414473322498,72.64010594670236,-337.0501494125728,-0.05987796624240795,-0.9585747910488966,-0.25175870881701223,-4.132940207491587,7.671308422575727,10.630463023472029
2019-08-03 17:39:41.975652,-1.0251190697454564,0.9923903864932602,-0.00026219451353287447,36.499438570494874,-251.54720548009877,442.88125088268174,-0.2076495654485934,0.9743880535906445,-0.09133034998835088,-10.039559627924758,-7.297228445602056,-1.126975891400019,-0.9797112395030166,-0.04263641268569224,0.4202758697763836,-7.793256138798309,4.864747665635283,0.4408009685112345,0.13065899451685248,-0.2740116248971077,0.11243978479279608,-6.821733185179039,55.47187534134449,-343.57736961767694,-0.06505853629095427,-0.959757069951896,-0.27247849758872295,-4.330738276710088,8.457917850947176,10.745845362418779
2019-08-03 17:39:41.985652,-0.9582481944166242,1.1054493780317187,-0.01903516001129431,46.37539299324837,-251.23933211607275,441.116480213023,-0.20121805519088012,0.9806383455994904,-0.08345122303844855,-9.616314563113107,-8.298308715636606,-1.0494391174719655,-0.9788464412354633,-0.03227974610655794,0.4273222340762966,-4.591984095978463,5.823261921372801,0.9482890246325361,0.03606609558329858,-0.32761381617577423,0.08431867012200317,-7.2111780639298555,37.42784722364796,-350.57698093043786,-0.06843532346360957,-0.9603376688408767,-0.29255506482973503,-4.4219513683125,9.240038396573315,10.759630495525135
2019-08-03 17:39:41.995652,-0.896107785573507,1.2345784941106661,-0.01776000802973284,59.69704672743514,-246.60681110067017,442.3715563871459,-0.18850757930745107,0.9878081168249109,-0.06558372918505884,-8.857765435346481,-11.000467707261203,-0.8732989221886555,-0.974732467288859,-0.022681587064851377,0.4339639914752047,-1.0814339306674803,6.316067175731434,1.266839250636433,-0.051689807418670276,-0.39542190918022935,0.07172011664243243,-10.645634752161396,18.2555086991119,-357.4798288942282,-0.06869128120701291,-0.9599517855917048,-0.3096979634970438,-4.377946170885313,10.07495668130107,10.83411984440481
2019-08-03 17:39:42.005652,-0.9267002552742464,1.2762053215521485,0.02740414838875964,61.847008298795814,-231.38814896527907,442.6713134995496,-0.18940181841840972,0.9810644188232063,-0.07039439632580981,-9.096267763601404,-12.175971028016082,-0.9649821950404327,-0.9678165001526331,-0.015573590495992252,0.4314552905384371,0.7791097322102476,5.848322549631868,0.9778355989111478,-0.12438264890466931,-0.4762316709755221,0.07881815036862351,-17.364432141523668,-1.834401029826437,-364.02204022025444,-0.06071645656026065,-0.9565717524038021,-0.31650905442850247,-4.0511470717120215,11.28247735909611,11.249105999475349
2019-08-03 17:39:42.015652,-0.9764003621310393,1.3506917885345784,0.2494863288709856,71.50972306028686,-177.86951281602825,434.97553195924195,-0.18831273716514282,0.9809910562344292,-0.07348671437423464,-9.129165740318395,-11.46825802604108,-1.902847861307001,-0.958634842593676,-0.012920292317046944,0.41716928429977324,-0.2942400700002182,4.544498326390577,-0.07771532597689655,-0.18250826532123493,-0.5648897349263089,0.09865900291954974,-26.049757169925332,-22.11029053098133,-370.23985449334344,-0.04712333211746302,-0.9513482093923309,-0.31589680410949367,-3.5293596703339776,12.685025875891009,11.970442863545976
2019-08-03 17:39:42.025652,-1.0464583575492385,1.3845263403108963,0.44379495428263716,77.14112820513112,-114.4434885893523,430.19125656034225,-0.1896129448781545,0.9856224663891082,-0.06468143049081633,-8.65809859428608,-11.878731398742321,-2.116337260379992,-0.9485215388978584,-0.01499845001995629,0.3931453895875305,-4.12160687139411,2.8417987660211197,-1.7119204163019597,-0.22701121246236833,-0.6564817483721497,0.12416809543668389,-35.722652347275265,-41.770478851190916,-376.15667724231446,-0.032222972202304426,-0.9458926525534026,-0.31270569072594834,-2.945980850450213,14.030969219661127,12.845689675297422
2019-08-03 17:39:42.035652,-1.148583075343487,1.6016195120252665,0.5147210019171573,82.14109776028353,-50.12848260960593,430.7229672772205,-0.20408207557597952,0.9891041046490803,-0.06215299987884578,-8.165029938049168,-11.96310693699235,-1.6882040834441578,-0.937725428126505,-0.021226381217126184,0.3749242614641877,-8.405946421229592,2.218740260701677,-3.2305790515849235,-0.2563777822894891,-0.7455895775263294,0.14801500212630658,-44.231959672862445,-60.07657883713442,-381.8327630914612,-0.020728164426624913,-0.942418019348396,-0.3138042746354208,-2.452707080851118,15.007977499174013,13.658783298884678
2019-08-03 17:39:42.045652,-1.204785499807374,1.8228435086369594,0.3197692143687968,82.41932552410825,12.608234971521416,424.65187847559616,-0.2082562879149307,0.9904319722509827,-0.06314497497220319,-7.056950260479916,-10.512914779647783,-1.202945454033334,-0.9275133785806492,-0.030603115170150814,0.37558265320124895,-10.995050273716762,4.010751435411821,-3.940368733373527,-0.27134717274739417,-0.8272885814092561,0.1631447995379295,-50.49869001538648,-76.23453092049795,-387.2955257029486,-0.014246611864741023,-0.9413020623743786,-0.3202396666603684,-2.0999354252702456,15.558355463477355,14.35978204476992
2019-08-03 17:39:42.055652,-1.2794411728336126,1.9885171515951559,0.1650313850858913,73.67893065653931,66.78656964556876,413.5354921597033,-0.1973778447447092,0.9944350504357332,-0.05946983312301063,-7.0914494000714505,-10.604053588972427,-1.434399648312045,-0.9196393845940797,-0.040803436198695885,0.39315756349009,-10.857576158200143,7.990298657999761,-3.662677223729457,-0.2761593463554506,-0.9015552233248072,0.16826335649867377,-54.37393414160366,-89.59460666831794,-392.6960429264714,-0.012197688191024812,-0.9419242541598477,-0.33004721794201114,-1.8629828240874828,15.773383981362503,14.932751700686355
2019-08-03 17:39:42.065652,-1.3696036958678375,1.9120065577485188,0.0837338474754961,60.05150078930565,115.2630824783002,398.0985860516004,-0.19555801411173837,0.9909363461796074,-0.05963613045211281,-6.556816539592458,-10.229689415700138,-1.3343820691124604,-0.9185430752819554,-0.047551538018105445,0.40669646977788604,-8.257995896865735,11.995795388845831,-2.6778902607166875,-0.2768437121605278,-0.9722169064613855,0.1667677480682743,-58.17286305331519,-100.00613317094039,-398.045923703682,-0.013512766683006154,-0.9434836053197334,-0.3404913443821743,-1.7059370515818513,15.7765852567926,15.405232390751378
2019-08-03 17:39:42.075652,-1.3524498648736147,1.8155536614745496,0.03740108841304003,50.513586874182515,132.72336013736677,388.4069769695296,-0.2041388966011648,0.979208081127524,-0.07111950149622018,-4.258383200268936,-6.879863534507581,-0.2937970845619531,-0.9237466859108918,-0.049054387742582445,0.4046920789286818,-3.863080020982965,14.772910255223517,-1.4713257439396168,-0.2825314018119177,-1.0460763858268773,0.1649639686030419,-63.800053013945025,-107.23267277618297,-403.5721202054715,-0.017510614741785183,-0.9453096845876904,-0.34945523080112223,-1.6006989728867183,15.666500525515223,15.763845890136112
2019-08-03 17:39:42.085652,-1.3294495430877102,1.759148781538834,0.1596206368994441,46.7552891272351,146.504867029743,371.66153595773716,-0.20825973332638376,0.9824991229009926,-0.07623716278333831,-4.050689440007737,-5.748296158896675,0.0006621410197632377,-0.9296863526538903,-0.04673170749533783,0.3907255171120575,1.1323777103816985,16.57793631366585,-0.6328418351889853,-0.29742674075905573,-1.1309268312327672,0.17139915306551748,-70.92924812149084,-111.15744738020545,-409.6742785470143,-0.02330040041310212,-0.9469081487974884,-0.3552440924008816,-1.524271572120814,15.566572239087586,15.99126108052293
2019-08-03 17:39:42.095652,-1.3976746686484118,1.7340574910416193,0.18930575113407985,55.903939404368366,154.188892198391,345.18886583280994,-0.20908988019726815,0.9768648220118674,-0.07746075638555816,-3.5503943944418124,-4.690273077667676,0.3644818067833208,-0.9270600245673281,-0.04425272711932345,0.36414730929310624,5.408561758641689,17.325566439417187,-1.0533762065022683,-0.33602675603124343,-1.2458329185734816,0.21104130810871508,-79.19147938125542,-111.2162182080382,-417.17890221273916,-0.030474711929908742,-0.9467719994097158,-0.35333384258839784,-1.4187776509837866,15.512875862447032,16.144837683475686
2019-08-03 17:39:42.105652,-1.444378280080994,1.584039842576941,0.24891472611809742,38.52979970141441,196.386655908206,342.80778225951497,-0.2088964617084968,0.9732154276088235,-0.0817205078662336,-3.2741076624776895,-3.9273046336643382,0.7091475641180068,-0.9164290902454592,-0.041394300389280096,0.332360237585523,8.387150947605406,17.57879340746765,-2.6873320127037212,-0.3986583175811727,-1.3947708710598898,0.2878982651389333,-87.77360365813873,-107.4549612701629,-426.2977591157228,-0.03802150087513069,-0.945537757677749,-0.3456228895238595,-1.2955168797597505,15.608161114118484,16.156922672235044
2019-08-03 17:39:42.115652,-1.4390205601951,1.4660109444997453,0.3502641013244777,15.69480906841406,234.85941861077822,351.21097103365673,-0.21633840190106784,0.982489934553584,-0.0857524645446921,-2.8518829598036453,-3.587947943559398,1.2343323413414478,-0.9071149381454031,-0.03514580826330451,0.3079678815234167,10.558115250299714,18.30426924967822,-4.572874957183146,-0.4616248358919061,-1.5506511524624527,0.3627292407036745,-95.16319029660342,-100.85952934948408,-435.86241747640213,-0.04501572062927298,-0.9445918117365341,-0.3367563522038652,-1.1773401920324122,15.848215204134837,15.94677975273382
2019-08-03 17:39:42.125652,-1.4711117741058244,1.8784192174832908,0.18092872671314933,66.47148713661277,143.9222648183872,330.2965241570223,-0.21896644066133777,0.9845170458037866,-0.0859478286630816,-2.658564517912995,-3.4411892448652712,1.4699992534634,-0.9061921887859186,-0.024024638608458056,0.2989128867882258,12.297927819090976,20.067534849641568,-5.964073651558562,-0.4863711171911145,-1.6703119794701886,0.380188464605857,-99.39172278937883,-93.7001032405545,-444.14997374128774,-0.05057868556969275,-0.9462768833824746,-0.3335622469085171,-1.164817791857849,16.41197078561059,15.369956769157332
2019-08-03 17:39:42.135652,-1.4945119055665017,1.9062075246936023,0.016012907552498064,83.63379058615163,91.2401307802653,319.5111931078668,-0.2134520468299269,0.9880879057172516,-0.08816170940195293,-2.697790522374824,-3.728759808447264,2.0922488308209846,-0.9127166931081624,-0.011404584274948398,0.30055552360512816,13.44289928466964,22.372854063425297,-6.874629609543697,-0.4874221420400744,-1.7632967504637878,0.3505539776498035,-101.16383213586566,-84.96631446753725,-451.04344695587577,-0.054332068999704816,-0.9503363616339436,-0.33629705918307956,-1.2058147647231834,17.112041228174157,14.468696594581273
2019-08-03 17:39:42.145652,-1.5930179115585725,1.9624409398900826,0.12336185988132005,96.73398055408995,44.203834451998226,313.22313938808657,-0.20941565425640965,0.9790326633046587,-0.08487650917279979,-2.1861621634047927,-4.244351285583929,2.8129485551208027,-0.9241487582607413,0.0007020542708860902,0.3076338995480493,14.051038645828115,24.735646212170195,-7.452897500065126,-0.498329451410782,-1.8581097538548608,0.31215961390504704,-102.36671635544957,-72.84657326208716,-456.98290720999694,-0.05680220456569614,-0.9551166087557532,-0.3414826523820515,-1.2091739954971417,17.597219282381992,13.388450983510602
2019-08-03 17:39:42.155652,-1.6320521837839481,1.9304635459907227,0.535940695701126,124.36451119939687,-6.278247218830858,302.7266463900926,-0.20578546721387042,0.9721371373005508,-0.08199825313004225,-1.9909080646817992,-4.305116304102135,3.0945927137345923,-0.9403240443454215,0.003445727898614236,0.30753263887596705,13.247815370178598,25.779521737596472,-7.74364079604213,-0.5626858264123922,-1.9937966225913135,0.29826649256522075,-104.86066295157268,-54.1037056001843,-463.08058422483776,-0.05895172068417389,-0.9585159700472559,-0.34478497420765786,-0.976019009869355,17.36815976534394,12.260695277928818
2019-08-03 17:39:42.165652,-1.8299117033259558,1.7737432414191348,0.8780450723450657,140.43474535672013,-25.886945542232077,297.3123643949035,-0.20529666591720705,0.9674383708276918,-0.07839272997232813,-1.7884086588945691,-3.774810504263214,3.587085717247713,-0.9589344580512579,-0.005407249201249659,0.2949034365675112,11.045886461397755,25.00288963192809,-7.881280854710134,-0.665121436225351,-2.1512684825433217,0.31485682354823613,-108.691046272672,-31.8680925029557,-468.23259124135814,-0.06092362541132403,-0.9600239497122088,-0.3450071769668104,-0.5284894265905083,16.379980169957545,11.168733776910866
2019-08-03 17:39:42.175652,-1.7746931340779803,1.683275799054982,0.8447127441403727,136.5019848018705,-42.925905295662936,294.559927708593,-0.20591963002855512,0.9801449904771093,-0.06989999596643924,-1.4315565376107455,-2.704378435801781,4.21852629408246,-0.9778403729362684,-0.023627215923977717,0.2713223678126438,7.931039166985112,22.68131182487172,-7.91054042523235,-0.7754073136956048,-2.2935095205239,0.34794455519480855,-112.91086273656275,-10.705748218243798,-471.0869281419143,-0.06261306011261188,-0.9600758990427625,-0.34254575982782876,0.03591320433732335,14.88571995794737,10.136944456600032
2019-08-03 17:39:42.185652,-1.4919105281001077,1.7466136418675826,0.5618797119937419,134.29707037690534,-75.39571930796845,289.3085354648438,-0.20783237506210978,0.992722533957309,-0.06467786074033822,-1.3142273926276313,-2.302223202361986,4.435818436703499,-0.9933514481459924,-0.038121607664992965,0.2506980780097236,5.54913874835161,20.458370255802937,-8.023533928796038,-0.8448099199435447,-2.3837828817634703,0.40951622981004077,-117.46065033710003,3.0159439646398343,-469.03114079308784,-0.06323121542885005,-0.9595129543429244,-0.33957477805305164,0.5417451591359114,13.135313811953923,9.173111098580712
2019-08-03 17:39:42.195652,-1.6612335993204446,1.704146052683839,0.4494617645639926,142.28374861714613,-74.4510324016415,290.8678105126108,-0.1996724027357228,1.003298563114107,-0.061559896858278965,-1.255175506282516,-1.9959732026194155,4.698463648486614,-1.002201282093836,-0.03984396015545079,0.242735463149053,5.080770204548761,19.52598954322365,-8.351312185558402,-0.8685824362961618,-2.4075845088006966,0.47839170819560434,-121.49458791534262,7.890178748895959,-462.15879746513804,-0.06256952990988966,-0.9587705732199668,-0.336554390896501,0.8748443140210029,11.389414826896198,8.301012911936263
2019-08-03 17:39:42.205652,-2.15739997034863,1.5802793002542894,0.4219114597227919,138.02714714841122,-74.39249050546832,294.6486599503334,-0.18527252171216604,1.0004669957431473,-0.055892458867404536,-1.0054425445833635,-2.0133422030042736,4.572342157998117,-1.0033578921574071,-0.028170686000091,0.24797046870736805,6.347525101587794,19.884167005367733,-8.7915033842248,-0.8766830621194383,-2.3876741468759013,0.5278190384818566,-124.57805904578679,7.200903694608465,-452.3980628459157,-0.06035811752218343,-0.958381569547146,-0.33442248867590424,0.9297040201618345,9.881920310164288,7.529657255182896
2019-08-03 17:39:42.215652,-2.390480186031722,1.5983966622134729,0.530526858323763,146.60195399842348,-107.1110455042253,283.6593853592135,-0.17786340548653795,0.9979368925437468,-0.05219901231754752,-0.8315259599152424,-2.302795635179876,4.406879158827211,-1.0011312411046331,-0.010821991652692448,0.2600938176134481,8.933609713194594,20.944241680228323,-9.114287775088293,-0.9062707593487314,-2.3270083628143787,0.5010712790940569,-125.05556800724302,4.253253644664382,-442.6358908654293,-0.057114047140982005,-0.9582866844280865,-0.3329184263339251,0.750205502603545,8.630751493050292,6.8618800822521235
2019-08-03 17:39:42.225652,-2.15957695601975,1.5449117178552247,0.7667621764267901,164.5158534782324,-143.83670503091764,273.4594138438678,-0.17552506725983388,0.9904054151920823,-0.0540993195623901,-0.36996075934772504,-1.5174507444047247,4.04777728488594,-0.9982987482141781,0.005559114183036604,0.27327310858816123,12.07889188883368,22.025373240394817,-9.05203297087479,-0.9797077047767924,-2.249833161672418,0.3839090228962592,-122.92746241646854,1.6267739731916373,-434.2981446122526,-0.05346757246145964,-0.9584272904735253,-0.3318320602766611,0.41225529789672666,7.627657480058074,6.284806616752047
2019-08-03 17:39:42.235652,-1.6874040167711777,1.317368026356862,1.0238570488619327,157.93898868741582,-188.98365481275204,249.17571599637017,-0.17778261934549086,0.9902196777037588,-0.05577212790935657,0.1646098160694768,0.09865209033391541,2.7391406989754516,-0.9980393508451699,0.013949378995444874,0.28143474012441166,15.087761597720402,22.451830545330814,-8.342847726233048,-1.0745144660534116,-2.183914995746858,0.2347773890749366,-120.69067614243315,-3.111790876792977,-425.7052814582454,-0.05014147330143493,-0.958691738913219,-0.3314346135758237,-0.025008978010906416,6.872315313901094,5.781472716428159
2019-08-03 17:39:42.245652,-1.3132865214835803,1.3206628623013426,1.0940415228310283,142.3398351375024,-186.9140571172664,203.35339552704409,-0.18899392492208122,0.9955509291541123,-0.06290781565458607,-0.43501935159230204,-0.1852757937316526,7.771583034414727,-1.0024407381114548,0.009410396520687576,0.27991004100781924,17.363705905979895,21.678902280849805,-6.82412126620481,-1.1770039655682212,-2.2110624946660487,0.1660112970523845,-123.12300437242187,-8.525139130379833,-414.3743580674238,-0.04754580562181967,-0.9591572243090842,-0.33045963104277093,-0.44862218545090077,6.3417463448333375,5.347014979335895
2019-08-03 17:39:42.255652,-1.2083275779138,1.3210968892650192,1.093878124703527,146.43423285858285,-161.31609478707531,186.34572481933427,-0.1877818805691269,0.998894284806271,-0.059517519751281084,-0.14198328920663017,0.2025241759565959,6.089139652539364,-1.0099904290625399,-0.0048972429848263225,0.27057231397820763,18.830055688565295,19.834137422142124,-4.6389919242349915,-1.2581080488570664,-2.3451030341741967,0.23151336464952466,-132.39077128317254,-18.11936371719222,-398.49459155011124,-0.046383711699762825,-0.9597239561587737,-0.32908177859780385,-0.7960666809770454,6.034204953264895,4.96522912141783
2019-08-03 17:39:42.265652,-1.1330632955643714,1.3341379699178422,0.980494372192281,135.01210671103775,-108.79276310846612,156.30930999644323,-0.16975503661429014,0.99994842562693,-0.044412973743555455,1.3438358806444979,2.0563158868617744,-4.687509568737208,-1.0188789520546015,-0.02572054452307001,0.2549352688065278,19.36205374332851,16.98735929668751,-1.9660960706858512,-1.275780210227588,-2.4734032660376326,0.351318541249562,-144.7986968130437,-41.60375298024391,-378.5746064296369,-0.04703075580970994,-0.9602921678557849,-0.3269548717422618,-1.0023778517448925,5.908420773651982,4.627820292917791
2019-08-03 17:39:42.275652,-1.3943730405457497,1.3427785578864244,1.0315819248946136,113.83073211207416,-25.606076050068122,124.01395242025033,-0.18133893116471486,0.986688426790179,-0.05751743642088077,0.9872500816568331,1.0655603449089748,-1.41890351656929,-1.0272968354438166,-0.04980651309601678,0.23451261526373063,18.834942868121438,13.208391231965702,1.015929924080354,-1.1731808422665697,-2.4216342505648702,0.4029805530422368,-154.17049390868178,-91.74003033958854,-355.28523840762733,-0.04949347312686528,-0.9607897359220026,-0.32551297828562226,-1.1232908912238257,5.962964579794298,4.313780342130413
2019-08-03 17:39:42.285652,-1.6883456442609575,1.209232670931398,1.1419529195938007,102.645712451335,15.329418099210994,117.8191356963289,-0.17025462088288765,0.975901405467732,-0.061489976088684443,0.7970060538761957,1.3062440375191355,-1.7340405030787713,-1.033434607586362,-0.07390215370563982,0.21081806312076723,17.123965860795998,8.567056555456439,4.1284496897013625,-0.9911788347368228,-2.253291579775933,0.4017654981324714,-161.86040334247207,-160.39867158987192,-330.33410646442167,-0.0536269545329023,-0.9610304991877414,-0.3261097138753049,-1.2201326603160694,6.149489672537502,4.007741980255636
2019-08-03 17:39:42.295652,-1.7590626741407338,1.0630076787155982,1.1902528185291545,80.89146653227056,46.37242316704832,106.97296608250329,-0.17565153932420713,0.9739194684021923,-0.06888768904132582,0.7857668691669027,1.315882802907531,-1.8126813096265197,-1.0384944068681097,-0.0940916202398586,0.18657509581033171,14.515674555170643,3.376922515581448,7.150046323900855,-0.8105507643538701,-2.1194766718276554,0.4154641255615401,-171.8726453443455,-230.67375187302915,-305.8805131957269,-0.05926297706605634,-0.9608362267261078,-0.3301278160529825,-1.3578060540575245,6.417295069113825,3.6937314037711224
2019-08-03 17:39:42.305652,-1.7422562500003052,0.8979714666119244,1.1909601290665792,64.19513972370918,57.682322516370505,88.09326470562851,-0.22686809375899836,0.9786425914894252,-0.0820061404575468,2.2879866669078703,1.183441219053953,-6.552143811327265,-1.0297229964301964,-0.10956076695827702,0.1588986697012152,9.392865027323033,-3.177076492391325,10.058465346724455,-0.6991826385232593,-2.189078535888931,0.5241536787668724,-188.98916424866317,-287.49241453123005,-283.2431279073903,-0.065882832501064,-0.960149025583329,-0.337634003190355,-1.5583103664241718,6.675563404585896,3.365093002755916
2019-08-03 17:39:42.315652,-1.7797711998635615,0.7888225509364709,1.1552397808299746,58.27459953646751,55.2567213824556,81.42250150668178,-0.2070593017695223,0.9882755549078585,-0.07616158148360305,2.2535092912961883,0.08959375803034265,-4.610010315414589,-1.0149551530474819,-0.11674978209340245,0.13301957167117004,3.080003729208725,-10.193835270278894,12.593706064138447,-0.6689905931267063,-2.4043450068533496,0.7042350154210752,-210.29222573195725,-325.83624989024224,-263.26007826597936,-0.07239715126552006,-0.9591181275712868,-0.3459987043140941,-1.7543527360006552,6.812069046717239,3.04675885483161
2019-08-03 17:39:42.325652,-1.7860477886025776,0.7453822519592272,1.0800337787135081,45.73663658616899,36.1555431761786,65.68252913520286,-0.22196022907842647,1.0041048645137445,-0.06870526033844548,2.25098331350557,1.5173423377503652,-5.900327924041666,-0.9953360866469873,-0.11564027843422454,0.11335968886870332,-3.495766502945313,-16.981473439981073,14.604911674348758,-0.6969358110210253,-2.625404932425197,0.9016843917949814,-230.23512212260638,-346.1035755406944,-245.75091714697956,-0.07759389779288338,-0.9579432067800961,-0.35239813144203125,-1.8823855120291773,6.715241790102524,2.767403814797777
2019-08-03 17:39:42.335652,-1.6802922109830194,0.7580925138250726,0.9327953787724828,35.37282771797249,-1.1472107691942641,41.26616930875909,-0.22477636185457944,1.0111445491909337,-0.061447706350521394,1.7751351040770849,2.8702677623127473,-6.114632936764125,-0.9975913009881457,-0.10304782932967466,0.10806596812694869,-6.875238442286374,-21.560843833838316,15.802309068584991,-0.7810373213182311,-2.7252848221843533,1.0496959092323412,-243.89092612240717,-348.70562282563685,-232.0948537597322,-0.08068598114338171,-0.9568093627539668,-0.3553625172050175,-1.9113602483697665,6.299682629841297,2.5341593106472904
2019-08-03 17:39:42.345652,-1.6090327416640893,0.7555699009923554,0.8383174033504424,32.95559422007569,-17.13579906799761,34.883608193977366,-0.20279044947735098,0.9810474772217862,-0.08148725219960645,3.851460787778229,-4.506205354828929,-4.6160534167346015,-1.0283900954845078,-0.07800325692846999,0.12283128277472233,-5.488815435635637,-22.893057694626386,15.993647507405699,-0.864405165824022,-2.6830183725498324,1.1700637652747585,-249.97791014451462,-336.00296497101687,-218.74084890985603,-0.08167023870236369,-0.9558683124930843,-0.3559970598547067,-1.8734694735616826,5.5266585364560985,2.3133957958887295
2019-08-03 17:39:42.355652,-1.569518859474848,0.8013347192511474,0.727586349418747,24.357675699089423,-31.057135443455955,15.928839003901395,-0.2110586931702949,0.9850178923141826,-0.07851195673380952,3.3580332095361896,-2.3695246154130896,-4.665419925688692,-1.0979114670374228,-0.039772091851269814,0.1623357607055898,2.4060695505461864,-19.93218381474485,15.003471024869356,-0.8847558207476056,-2.53151579666524,1.3064008674293466,-249.19257727534358,-311.20764456270314,-201.51024896237544,-0.08078640884892654,-0.9555736403256699,-0.35527088679035085,-1.7832366681211202,4.452600344454597,2.0789672371268613
2019-08-03 17:39:42.365652,-1.502586147515473,0.8899414885747775,0.6281915976648154,17.65768961686677,-49.522375351896194,-8.675886394038349,-0.21779818827041567,0.9782167166982116,-0.07951325984970667,3.7047507500776033,-3.4975216330052836,-4.15401245777088,-1.1646644327088378,0.0029616333772804586,0.21784635471107922,12.382354804035618,-14.997108721487573,13.18984983666405,-0.7453607003505744,-2.2729907188310703,1.5340112233423853,-241.0004823655877,-279.3629770568774,-173.3239025514069,-0.07786068024270369,-0.9553253029960944,-0.35526198579451645,-1.7175726066056256,2.8315819539395872,1.7648846227984671
2019-08-03 17:39:42.375652,-1.4251771205495187,0.9202732053164784,0.5906688141018647,15.888363385777424,-59.97404315272137,-18.435016115645077,-0.22693295217942772,0.9756686885650795,-0.07975551376843013,3.7568941265933615,-3.774918023193506,-3.4632824192701213,-1.162802476320174,0.036011994563381174,0.2728438112592484,16.923409739005773,-12.159747678784063,11.227439016968113,-0.5412766884451796,-1.994245643501577,1.7766748651927855,-228.93840301280252,-239.70723439671875,-142.07714097743425,-0.07316932739932536,-0.95551571549085,-0.35680958644173044,-1.685433819541395,0.7373347822075461,1.351792894635954
2019-08-03 17:39:42.385652,-1.2730641983709206,0.9399991380455721,0.5207803345868056,9.48626107711184,-73.2524167719867,-35.58090873040433,-0.23174036668832812,0.9858152487881158,-0.07504947043293286,4.242005470893234,-4.858656675605726,-1.7782208283200942,-1.0918110878355658,0.055572381761919164,0.3191138487462899,15.044585599386956,-12.227985180461694,9.395622946696022,-0.4256321027071398,-1.7975475868641657,1.9179933823099806,-217.40528407794588,-189.90763589013235,-119.94959207747864,-0.0675424793986965,-0.9563297104429668,-0.3592419227329638,-1.6161062799012722,-1.4649071897387098,0.8991367909939249
2019-08-03 17:39:42.395652,-1.0881691655977441,0.982187046096141,0.4577886235900471,0.10862002487707875,-85.11090042270928,-61.368113862004016,-0.23312495414083312,0.9918887515519873,-0.06871208368254075,4.673368520953588,-5.721654717497883,-0.6813699672094851,-1.0063329907379015,0.06794881067897976,0.35462710881555504,11.804047829904265,-13.307752571335488,7.3883929591106225,-0.45152468001593365,-1.7150768530687406,1.9251272392169503,-207.9015428872666,-132.47274940567152,-111.08425903582902,-0.061975206981716165,-0.9589922562203508,-0.36043063230305883,-1.3971439060049209,-3.1961782290128293,0.5020415276416013
2019-08-03 17:39:42.405652,-1.0147267415767869,1.0108372324585269,0.4326265668932487,-4.544946720222217,-88.61823379511111,-74.7443150727866,-0.23248096491451573,0.9923086678516893,-0.06658403204749629,4.944214060871466,-6.338130675068848,0.6528536281763344,-0.9531006311300032,0.07800249580783868,0.37701191249900196,11.173374726802473,-13.872907967249937,5.064791030122879,-0.5618953799384853,-1.6954473270796262,1.8555042340882895,-198.49581465475953,-75.17328213052377,-110.78832053887177,-0.05753250690549363,-0.963869159549653,-0.3589514420179418,-0.9274359967066841,-3.954013891868196,0.25152178736245223
2019-08-03 17:39:42.415652,-0.9519009617393163,1.0364196069539509,0.39510239792466073,-10.021064919316311,-88.7356087039122,-92.35217222060909,-0.22066847225482414,0.9893063608204395,-0.05872850448553814,5.732060826973555,-6.685076570471279,2.8819089803658096,-0.945050932242336,0.08800822880318306,0.3879055017297341,14.206596872486076,-13.261790770521428,2.481458825838348,-0.6958704883253265,-1.6816243552901282,1.7660546703804019,-187.10062466266584,-25.84275151411288,-113.98120184363471,-0.05449224927650401,-0.9695686685527991,-0.35525409749656434,-0.23296942983441812,-3.7925833752678133,0.1658636704972818
2019-08-03 17:39:42.425652,-0.8723693354863831,1.0756628454704658,0.33696263847337066,-17.85048273345112,-87.0523914478564,-115.87250137605137,-0.21609310474781335,0.986535714653937,-0.05396417728512428,6.083294873852056,-6.66222236255559,3.7516898399090324,-0.9589906699287828,0.09233201537200009,0.38859079250782497,18.013407948632036,-12.26393701222057,0.22188242417464743,-0.795496971057796,-1.6066480531078802,1.72953496607268,-170.77848158377995,7.709033278004854,-116.49582968056318,-0.053076568767604956,-0.971605799952989,-0.35102696898299773,0.7158547943993356,-2.9511972880733297,0.2785237717706079
2019-08-03 17:39:42.435652,-0.8415652373746769,1.0974944446562058,0.3172127566626792,-20.929992515859432,-86.15546597362903,-125.61874527051094,-0.21124283145393824,0.9922500263449051,-0.04302902040934955,7.005181379282585,-5.799377356046941,5.2518047345259715,-0.9803962292096295,0.08881165954327419,0.38267445450611115,20.908586645156948,-11.084177617258177,-1.3382885886063476,-0.8503607321407494,-1.4860460211718638,1.7264575022175124,-151.23043973736003,25.72512597007745,-116.13726401155566,-0.05324345088473136,-0.967258097291558,-0.347576490426354,1.8704797511401436,-1.7172437650412198,0.5873903212087412
2019-08-03 17:39:42.445652,-0.815011118324347,1.1309143578076075,0.3058963997355304,-23.708432410459142,-86.37873237342475,-135.62324288805073,-0.22279234087793404,1.0019810626058188,-0.04375457733186113,7.743753840543663,-4.096525296554019,6.776990060302286,-0.9925719441238898,0.07447711356747859,0.37327174449017103,20.91755305873424,-10.063965975932893,-1.7755840482038263,-0.871919982212757,-1.3619598497655039,1.7121444778658048,-131.4278697539615,31.821959655287742,-112.22897194571111,-0.05454152228861144,-0.958740814672243,-0.3451353285781789,3.0542669814184458,-0.33088571826091273,1.0072315277143387
2019-08-03 17:39:42.455652,-0.7704521254619273,1.1632196253220457,0.27508719626860245,-27.638058118478167,-87.11223329075317,-148.67398699562312,-0.2605890620299484,0.9961271720088469,-0.08492230955254541,6.992064287395674,-4.509329834374793,8.343483023472942,-0.9849670504559896,0.04907533301127627,0.362912602747333,17.019318490401613,-9.373171662778352,-0.9265513601590325,-0.8721380394193655,-1.2771233647500881,1.6329144927752974,-114.3992331646597,29.61670276446639,-104.05836258995511,-0.056285956340473495,-0.9514473544164584,-0.3435823178491162,3.9611483362859374,0.9873986450623036,1.401170738748006
2019-08-03 17:39:42.465652,-0.7449049498395394,1.1695728880404619,0.2610035078586891,-29.459852261995653,-87.58415762977509,-154.07163954324272,-0.2586370219123109,0.997841892377133,-0.08327816894215008,6.118347386299681,-5.191671786551746,9.059095497131697,-0.9653389010388342,0.019772303251405134,0.3527083558571785,10.890063018890274,-8.640490214800922,0.6830719539319702,-0.856054488347984,-1.233071139782121,1.5039111039485173,-100.22665987742853,20.86515180223277,-92.30670060594376,-0.05809010897991149,-0.9475646384991349,-0.3427460886064291,4.487374593054914,2.114461211916477,1.7037383850603183
2019-08-03 17:39:42.475652,-0.7080059760031432,1.1594899297101449,0.2504818660778827,-33.472699105788095,-89.02447120678106,-159.11802792882384,-0.23419591236276466,1.009088985676664,-0.061142148557266,6.768340697863199,-5.5903330295075495,9.14093225579645,-0.9416849468826565,-0.006172923160597647,0.34336859046578294,4.326432526191793,-7.544030816362772,2.4614964833662123,-0.8304737143421093,-1.2173993152751408,1.355815660682375,-87.93776299173831,6.878210525537654,-78.5918514578357,-0.05997391608787813,-0.9466782810010228,-0.3422903650171322,4.705520196863854,3.0946896408391376,1.9258293174031267
2019-08-03 17:39:42.485652,-0.6596080426056844,1.1593365035932226,0.21933822727174568,-37.7051795455911,-90.30221672534829,-166.17622901497774,-0.2233980668145577,1.0108767339587077,-0.04156773137426137,7.52841519882006,-4.606525837315745,8.929439077873113,-0.9225888976457434,-0.01813758465146506,0.3359125638208546,-0.5435547180954332,-5.607809320665268,3.6808280582146593,-0.8001877965793444,-1.2150848304385298,1.2382316740440795,-76.40842146968424,-12.005784990196405,-64.19120307106468,-0.06188979459474714,-0.9476358796741378,-0.3421747060899443,4.6875515251613145,3.89395704876303,2.077987141655369
2019-08-03 17:39:42.495652,-0.6316851294412279,1.15718657990779,0.19628117422114305,-38.9611726453743,-89.13510565841867,-169.5532649110495,-0.18006734133918728,1.0162290334742379,-0.027740654615563253,10.112136564790005,-6.391663050099666,9.047327880464952,-0.9116174039969455,-0.01590982627581408,0.33041563692972853,-3.137802213281788,-2.8595246914005266,4.200822429111836,-0.7734380060965501,-1.2169670541228002,1.1757209553040053,-64.85413499318898,-34.36725523681658,-50.724624333117006,-0.06387255149511847,-0.9498765254844037,-0.34206669297804543,4.514084662912031,4.560792131966377,2.1744538329977723
2019-08-03 17:39:42.505652,-0.6067526601331772,1.1532888882293015,0.18899035768486336,-39.415553497712935,-88.62774977123986,-171.02660445720667,-0.178183183868944,0.9926019555074278,-0.05733226085586285,13.859391634756212,-4.841575773842124,9.815162820517601,-0.9073792752496702,-0.0070957448711431404,0.3263298805909499,-4.257258364834681,0.29602533486004856,4.421602597289666,-0.7477710141821754,-1.2160720065391264,1.1586501210348743,-53.0289653219369,-58.69423752582924,-38.324087607208284,-0.06577394951773688,-0.9527733356149266,-0.34187301055037883,4.246609400394975,5.09049262624961,2.2133867884805056
2019-08-03 17:39:42.515652,-0.585365439900145,1.12095410098857,0.1620654393615483,-42.25098201370094,-80.71654258239911,-174.0815688907937,-0.16723037298952081,1.0014678737143738,-0.04009309052006146,15.344402535953039,2.410769128330899,9.990832429836649,-0.9056839024134733,-0.0016900989461599743,0.32245373398104876,-5.197922202248083,3.2710042758735534,4.785620266118559,-0.7183412801553449,-1.2111518981254192,1.1548339965873617,-41.00425111532878,-82.72684508562878,-26.635835825307165,-0.06804405127552297,-0.955324516511453,-0.3409125984465676,4.009089023855141,5.5906472813320685,2.24924030927196
2019-08-03 17:39:42.525652,-0.5803707565253801,1.0963933240881554,0.14598888642618554,-43.829688566198826,-74.31411797010567,-175.27108079042148,-0.14255222480744179,1.0194570885362602,-0.008636654195515051,17.054766806667374,3.72241798394127,10.70399112421956,-0.9068659055481896,-0.00240935587895984,0.3187149506806456,-6.208920835330093,5.910793430230226,5.517609640680596,-0.6792493115790601,-1.1964197738412659,1.1430779816534489,-28.67938525612437,-105.1148607826844,-15.272417201932704,-0.07050026288064762,-0.956987727769835,-0.33915265399682093,3.852711203889489,6.048061043805538,2.2760458114626534
2019-08-03 17:39:42.535652,-0.5619455372232589,1.0835272778466558,0.14398102205750596,-42.23880304922976,-69.32658055264274,-174.56580442292176,-0.12687262080755557,1.0442389289035026,0.022724784936435382,20.026743818057195,2.9844651784424414,13.219356593165557,-0.9110824010157397,-0.005153187638406949,0.31608677780780664,-6.987028669771956,8.34245486586315,6.591037694930915,-0.6312866413809519,-1.174513901419483,1.1152689168583432,-16.290713832297765,-124.74528931450246,-3.8733899744835947,-0.07308617015269837,-0.9573721658693516,-0.33673464702765904,3.7946224253165184,6.45611572009467,2.295371742899638
2019-08-03 17:39:42.545652,-0.5522976225262929,1.0296540534683853,0.1299370396462084,-40.02266151344261,-58.66280865358675,-174.20308075201157,-0.13387856007155186,0.9656589273568362,0.043721849067257304,22.02064001819736,0.49736701039429443,12.219174909426949,-0.9200836940343975,-0.0044715629198016325,0.31599148770468,-6.835041221542082,10.853863962524354,7.9483370134182945,-0.5794858747467003,-1.146859487988876,1.078917106129102,-4.13296697301419,-141.4773808542663,7.1403327666408485,-0.07555040990001485,-0.957299482950089,-0.33387853133584333,3.7805608645534274,6.763903842823047,2.278057320064899
2019-08-03 17:39:42.555652,-0.5599562645549077,0.9919810749764327,0.11953120327278587,-38.9918258180205,-53.52406310919447,-173.69045088791464,-0.32385089862429983,0.6364033509174315,-0.20157092215136307,25.41732540342394,-3.4429271755587023,1.4590872923619047,-0.9321800654190435,0.0010278581829875908,0.31796933324131577,-5.94300733486243,13.357207474641259,9.547394431220491,-0.5269244420858348,-1.1179182547504476,1.0331854189582512,7.386194350694134,-154.7092734182256,17.942883222927012,-0.07775991120512238,-0.9567856828764921,-0.33088408065400177,3.7892811126334913,6.9421116660757365,2.2137420709588245
2019-08-03 17:39:42.565652,-0.5428996897597776,0.9529329844731158,0.09214037100126281,-37.58401454270307,-48.081001998074335,-172.6724609689684,-0.40323771285375953,0.5277345399974733,-0.3380154507433762,22.976471545596546,-1.9469109390639943,-1.425967386407704,-0.9442428644934495,0.009363824207555278,0.31905575449537144,-4.958944998196528,15.497381174529849,11.276816931589014,-0.4772899572066318,-1.0914441748980561,0.9798234978862743,17.891730970391443,-163.95480532483114,28.54901417855964,-0.07991164334663825,-0.9559245118455069,-0.3278390647632338,3.80513940754563,6.987384246734916,2.1145497055125815
2019-08-03 17:39:42.575652,-0.5084123512215573,0.8963620566937314,0.06287168402053094,-34.054082545538485,-40.980540637755944,-171.89755199993067,-0.12954570549944075,1.0374554128219586,-0.119302903492051,2.045928824660005,15.953738635805191,20.522082409907338,-0.9529916899159052,0.018312404593055043,0.3184835237843686,-4.728492313583248,16.832725184074224,13.003022808430313,-0.43266167015167734,-1.070350996120714,0.9174467986684062,27.29467230926309,-168.56348376102747,39.14055465587861,-0.08108615360247082,-0.9551416599230501,-0.32543812427713165,3.77130524953183,6.799732831150796,1.9088740899122072
2019-08-03 17:39:42.585652,-0.49925835630524884,0.8627719674326932,0.0501529499181606,-31.39345166210081,-37.63827514505165,-171.56570759188253,-0.10460540429638474,1.0187897819216913,-0.05242052753841732,-1.1887159354093781,11.779097974085165,20.495994158182334,-0.9572711259559615,0.02668220578278366,0.3132434513944565,-5.358306912946406,17.30228238064303,14.693291931195644,-0.39291320325577234,-1.0563252144031798,0.8408330553393428,35.94679059370137,-167.64028675925334,50.127362656847986,-0.08143259474137807,-0.9545450905082313,-0.32379502133911564,3.670370842864102,6.371663636634933,1.6052527732138424
2019-08-03 17:39:42.595652,-0.5047231170469184,0.8366085515138576,0.029278007873031957,-28.989764737351962,-34.58873941356717,-171.35353067268267,-0.17766904508970233,1.0026351522515042,0.09136035455286469,-0.8943333374173285,-7.961344783525286,23.11557926393778,-0.9585521694977863,0.03383148844658759,0.3001317520844299,-6.275491835372022,17.22768628547486,16.468185106417618,-0.358581525287652,-1.0511493476487586,0.7479985163466177,44.14574862774541,-160.54408752826146,61.69502059388172,-0.08076734538734529,-0.9543630283317245,-0.32320503542372786,3.471037477917997,5.665650071353689,1.1868474315919324
2019-08-03 17:39:42.605652,-0.4971908089207092,0.7858620621330832,-0.008771967238557138,-20.786443708923127,-31.526095084455335,-168.86092014337922,-0.23766200860031578,0.985243000498089,0.10004408584213575,-4.600775449266781,-17.69404852046981,23.478580119255874,-0.9584245048154211,0.0395493610138509,0.27839575485647977,-6.996919408971266,16.896899593609444,18.402627894729754,-0.3283145157791437,-1.056024095457288,0.6281583976990149,52.702851468471344,-145.27869551824588,75.05165483975696,-0.07919905657982515,-0.954651626362317,-0.32370771426767175,3.168802493176772,4.692456137393216,0.6631939638806179
2019-08-03 17:39:42.615652,-0.48951241923276373,0.7577872329014168,-0.02971886919458742,-15.758404982176112,-30.69098102351979,-166.99869126784003,-0.48928903602174695,0.986013636864952,0.14937102710958025,-0.951331551185617,-1.4730619690122482,31.116379395425596,-0.9588120192180097,0.04528233772493354,0.2552849192686912,-7.3471735560095555,16.45705716253955,20.45313141884104,-0.3046339782114508,-1.0705927478694077,0.49877311559221477,60.889888692999975,-124.82084634909623,88.57310612505066,-0.07737994918992956,-0.955137621120987,-0.32486682598699423,2.8096992914171777,3.5531780167076237,0.09306041455175551
2019-08-03 17:39:42.625652,-0.4934238696553216,0.7572283390463225,-0.030736748019643854,-15.429890808716664,-31.76848140652615,-166.53241907197338,-0.9795382882092173,0.9519290997361207,0.1257138299931353,1.3750235837261386,37.99581141114499,48.40134314721945,-0.9617670492307907,0.05292173771182777,0.23937378181367994,-7.1714408231591795,16.049526951250833,22.55967417292182,-0.29106267296284855,-1.0926843097981473,0.3900122473693701,67.304815489396,-104.61577091590657,99.48577619085845,-0.07588629244096254,-0.9556421758439977,-0.3262550889124613,2.4389119098098613,2.353349845996505,-0.46752377843155757
2019-08-03 17:39:42.635652,-0.5014393650165133,0.7382353507468097,-0.02992291242494636,-9.302421083528044,-35.42886192857938,-163.3572181118345,-1.1577618063487103,0.9406581779186874,0.11025956744097745,2.3633994763901804,53.01776220719334,54.81920058716165,-0.9684517127759675,0.06354550712817358,0.2363289132750221,-6.417059673660069,15.759972586925107,24.650544280845327,-0.2878755480471189,-1.1192878615732538,0.31661637926147007,71.45253483788937,-87.70300877047251,106.76671970581323,-0.07587876182159171,-0.9558532178652452,-0.3272264075116344,2.09064475808169,1.1851342728858192,-0.9391880385229698
2019-08-03 17:39:42.645652,-0.4922381394105031,0.7155398511283056,-0.0314129063021759,-1.1988873852391877,-40.424159591497066,-158.3379803918455,-0.5364406989000001,0.9743604103995145,0.10785459051210816,-3.5483084250248926,0.7696582130271103,32.27891146206619,-0.9778929773544941,0.07597631708462406,0.24370981470657616,-5.230308292887251,15.566548048618138,26.638842371053865,-0.2904670377623571,-1.1456273205996264,0.26955359290471526,74.30739466526157,-73.303683050865,112.37233923562293,-0.07728417184581726,-0.9557613924320145,-0.3276805956027444,1.7954173059671064,0.11489610256320448,-1.3091526630794743
2019-08-03 17:39:42.655652,-0.49401650571638484,0.6905440555822245,-0.025292129687274602,6.253963993305562,-44.37498292350041,-153.75266493239405,-0.06579269265207244,0.9751082567355708,0.19254923244756345,-15.848512360392775,-32.152867131666056,17.69770922278736,-0.988917139015372,0.08898319978922238,0.2584562649206545,-3.739204360714171,15.464267183289028,28.44385685318797,-0.29397783098442787,-1.1671572403463932,0.237335714548211,76.92413518892194,-60.23550940841252,118.46991893259717,-0.07951074637484187,-0.9554920165543258,-0.3277750370187402,1.561129584325721,-0.8414428034039996,-1.6228977673323368
2019-08-03 17:39:42.665652,-0.49544114081988044,0.677803615569932,-0.022150006667740446,10.181919909515097,-45.77509424024171,-150.76420379008806,-0.08547465518030621,0.9864514187576804,0.15689411584045374,-19.36765307098449,-15.567678911798712,13.761497250658183,-0.999343954112743,0.10043821947157915,0.27562179278946486,-2.3703304413485173,15.263683526607368,29.928535668348555,-0.29585945146330866,-1.1824630753852845,0.21250624889096076,79.6364486174591,-47.91168419696921,125.73840190482696,-0.08144503707941833,-0.9553334809058833,-0.32802412993852775,1.398368512657941,-1.6793685249515664,-1.8899203623588199
2019-08-03 17:39:42.675652,-0.4850122729777912,0.6720717412792637,-0.026483770948140976,13.19369541147598,-45.84433957085525,-148.10218134170162,-0.09484281639956753,0.9949623772238189,0.1549952266781258,-21.94654190162806,-3.1024275879742165,11.580763667398564,-1.0078504693003711,0.10897740620478769,0.29186648456648223,-1.2959753235464315,14.932459207516768,31.003813078893266,-0.29593858617973395,-1.1936156529946478,0.19072953187272051,82.06516639510954,-36.15800973015089,133.38514334811163,-0.08244249197166346,-0.9553816421261575,-0.3285968655482772,1.320913032933792,-2.384957995543182,-2.147774448787705
2019-08-03 17:39:42.685652,-0.4530950375853652,0.655804073014696,-0.040327193840924334,18.956613569666153,-44.433846597798244,-142.74706934062857,-0.07460649597620135,0.9977421878164777,0.11807970646716925,-18.37637229317607,-13.509956495065067,13.84019580557967,-1.0128657272362136,0.11301281658012616,0.3033625999746671,-0.760254211578247,14.393687339077156,31.567384578156627,-0.2945189670414666,-1.2031381206933318,0.16709035217734666,83.73496626037549,-24.5975278621857,140.67968004078037,-0.08231127933735428,-0.9556858477324464,-0.3295670511036758,1.31870994746192,-2.9742779743278542,-2.424064809092567
2019-08-03 17:39:42.695652,-0.42690964637829026,0.6368263554411568,-0.03584788529846169,22.810890298746926,-41.59016944063739,-138.95051529375473,-0.12804928576256724,1.0075177533881927,0.214285200255683,-29.530453811208837,30.792688383474214,5.182749658917694,-1.0135559185486889,0.1118575913157234,0.3078172250804242,-0.8692629236339098,13.634239744509339,31.56150714727599,-0.29029761809093224,-1.2129112837613123,0.13622229404564362,84.55459336465614,-13.090379732467316,146.6887416218676,-0.08150550339846016,-0.9561726019992876,-0.3306661609846794,1.38639957060304,-3.4282032436776,-2.7168363269448976
2019-08-03 17:39:42.705652,-0.436881933415439,0.6124462292930963,-0.019045720682298043,25.597492630834477,-37.1696813273315,-135.84550703383826,-0.1289093770091305,1.00502709313901,0.20135210917142904,-30.12492209439522,29.600933747528323,5.3241110563128,-1.0111322639112845,0.1073406303582072,0.3074502338715037,-1.3602080382368664,12.813110984874946,31.04439024029905,-0.2837295042409752,-1.2249155771541125,0.09427407014387623,84.07866998585745,-1.358518606923644,150.81537345530825,-0.0801979301692858,-0.9568253148911281,-0.3318187849255806,1.5064752651433928,-3.7651371245013316,-3.046057852533217
2019-08-03 17:39:42.715652,-0.45502065101531186,0.5752716796103682,-0.001726321411825774,31.737069115388863,-26.429073064986266,-128.43534649651727,-0.14921492001467132,1.003183771177254,0.18507103646662704,-33.21653838543692,31.36406967306726,4.418637185667362,-1.0070330402704855,0.101849759037122,0.30479667241188435,-1.923632248017356,12.10509528132723,30.082049750421596,-0.2759331502299068,-1.2368772377550579,0.04517902267629246,82.05264621060854,10.078937728990374,153.227936578577,-0.07853466023615294,-0.9575796488092025,-0.33291027985079724,1.6674376059574918,-4.000051047478162,-3.3975233444479356
2019-08-03 17:39:42.725652,-0.439938431543748,0.5659588144787323,0.0046570192258830485,35.19817207353595,-21.304247360483686,-125.27492379135616,-0.17277995066136415,1.004340407076456,0.17182898613992198,-36.4096526502405,31.815667229797366,3.54167804128681,-1.0028966508039316,0.09656685123519072,0.302569225079199,-2.1786600296380216,11.739127624470925,28.81271692889339,-0.2700591972516333,-1.2488972057283436,-0.009178807337790279,78.02377803707675,21.30328250615872,154.63169647480427,-0.07700066311186682,-0.9585008135026535,-0.333808439530884,1.8455978886587956,-4.129072260630831,-3.865851161853365
2019-08-03 17:39:42.735652,-0.4443477090688607,0.5521417055067606,0.01621471223401806,36.40879108596663,-18.677162353296097,-123.49199832613294,-0.176683455097857,1.005937496450022,0.16260817411081063,-37.80938275433046,31.41619389682895,2.9170589892375034,-0.9994249702817478,0.09352884466222118,0.30199416738527846,-2.0391673593551776,11.750031204758935,27.247137619944034,-0.2684215955788013,-1.2588126899856422,-0.06327561357866275,71.64237495672971,31.774529838119115,155.50474767799489,-0.07571538826726026,-0.9595229056107635,-0.33440907789806784,2.030799430580079,-4.167343454856183,-4.432555460742225
2019-08-03 17:39:42.745652,-0.5029624393812551,0.4858727078251568,0.04535557022445973,44.20871717780199,-2.524350968256032,-109.2162671812903,-0.17601424025856885,0.9997253536117261,0.1341407935302008,-40.17384797245117,28.86348293883663,1.4795092075731577,-0.9967865335798488,0.09283054082667289,0.30280401110449695,-1.732433660504727,12.018707190388106,25.42399391282537,-0.2711951915520814,-1.2630216013069409,-0.1123202154550786,63.07908816555144,40.57858704011012,156.17904061670177,-0.0748410481726217,-0.960597108191865,-0.33464278222168337,2.2188535291840816,-4.120811819043561,-5.0821944313033685
2019-08-03 17:39:42.755652,-0.4730384279584992,0.4849566312478589,0.01509186550306597,48.255611705775316,-0.5371430698543721,-103.40238554619154,-0.17552237230877107,1.0023637814047437,0.09698440578180989,-41.670221033744,24.903761705525564,0.3123861320069,-0.993641162080797,0.09877087007769134,0.3038200401309793,-1.3956992762167428,12.339858856312187,23.07495318258544,-0.2730509624669332,-1.2522771125283698,-0.14726734264688357,53.52690236438866,45.899365711105474,156.46101107669733,-0.07409979606616147,-0.9617370790734425,-0.3346088869621422,2.4116825351782434,-4.002764885864007,-5.8020686927711305
2019-08-03 17:39:42.765652,-0.4593857559520986,0.46774486179611713,0.022059132233091576,49.83712866538649,0.12127735386717498,-101.63886884106923,-0.17140391086784743,1.0067240322049609,0.082708000965948,-41.97749581705259,23.009337285291974,-0.023699235507111283,-0.9899772199788035,0.11207160235711044,0.30486856880114876,-1.2333908894063506,12.583965778599476,20.193566574299776,-0.2693702115024552,-1.2193471847487507,-0.1621164659065849,44.1768880062695,46.10979364868723,156.25695494380804,-0.07349443461116265,-0.9629046196763108,-0.3343043740342089,2.6104726061693775,-3.8203186064873274,-6.566300744661783
