Time,LA_AccelerometerX,LA_AccelerometerY,LA_AccelerometerZ,LA_GyroscopeX,LA_GyroscopeY,LA_GyroscopeZ,LL_AccelerometerX,LL_AccelerometerY,LL_AccelerometerZ,LL_GyroscopeX,LL_GyroscopeY,LL_GyroscopeZ,N_AccelerometerX,N_AccelerometerY,N_AccelerometerZ,N_GyroscopeX,N_GyroscopeY,N_GyroscopeZ,RA_AccelerometerX,RA_AccelerometerY,RA_AccelerometerZ,RA_GyroscopeX,RA_GyroscopeY,RA_GyroscopeZ,RL_AccelerometerX,RL_AccelerometerY,RL_AccelerometerZ,RL_GyroscopeX,RL_GyroscopeY,RL_GyroscopeZ
2019-08-03 01:33:28.963304,-0.33547954151169185,0.930292349523945,0.16528871132797868,-0.8935732478280063,8.692906454984787,-0.03084510104601963,0.03149197667393013,0.9975577783516901,-0.177246545025916,-8.006801219710987e-06,1.2198919025574315,-1.5549170687621492,-0.9331875645336629,-0.06287960918008777,0.42787251530045056,1.0865979161061532,0.7208199802346528,-0.20089405637407623,-0.3464527742683877,-0.9275770576325226,0.1325184171448652,3.641117002152846,5.559698951689018,-1.7600156615295508,-0.15196800045035364,-0.9866532651005022,-0.20932668275032731,-0.3050421075702649,0.0016865665732139906,-0.17196510631743286
2019-08-03 01:33:28.973304,-0.30755824709391527,0.9461044867026378,0.19585235967528758,-3.1850269718579156,12.375860577622499,-0.12485405999016097,0.03205023539875621,0.9957990204016498,-0.1773246614896346,-0.008028899391988364,1.1593416894827822,-1.5068698880213511,-0.9312626663570576,-0.06160107330159044,0.42830733526814696,1.2899102139379666,0.44804565147457664,-0.23553963025972782,-0.3118675337964286,-0.9209937651905293,0.1666460633190458,5.052483502503469,7.644871436789899,-2.230119392097904,-0.15131111561987434,-0.9869506139500324,-0.21248484696273284,-0.2790236466872404,0.07046271595579995,-0.130559071512452
2019-08-03 01:33:28.983304,-0.29647354278982674,1.0225491425127367,0.3086326085955931,-6.75005674826244,16.706772646170762,-0.2315929287257277,0.031728566263612284,0.9961856341500241,-0.17841489973998467,-0.09522613942648069,1.0411891953481154,-1.467318902761639,-0.9333356502675976,-0.06146133114424984,0.4284151919841178,0.899922541180586,0.49389073294013974,-0.3095990530525902,-0.30539499280519383,-0.9380693442543602,0.22066789889869567,7.4484546165275205,11.74322329872537,-3.9997482978891057,-0.14764264077715755,-0.9874604735554725,-0.21432114432381363,-0.2621661272770586,0.15968884454480933,-0.1120805381395449
2019-08-03 01:33:28.993304,-0.2663770834413675,1.0694664556710216,0.3403672575130168,-8.271799421423921,18.46195466007872,-0.15311815650455587,0.03027182289676258,0.9975601230877842,-0.17919903241001606,-0.2135546756999011,1.0365735782317969,-1.4328512390809285,-0.9344365512256642,-0.060637336424520724,0.42799959982059144,0.7815120308186783,0.3802771756402805,-0.30468246479147926,-0.25965206154565723,-1.0277865549220508,0.35789394691962995,13.543739330816775,20.924582595344884,-9.051499060973555,-0.14650001252183595,-0.9877933696909894,-0.21287262794120482,-0.2129450439717957,0.21346357372072716,-0.21447243139473793
2019-08-03 01:33:29.003304,-0.23412525115975064,1.1032803575723462,0.3304679182919995,-7.554746863113654,17.91190029602319,0.05214740127255799,0.02919773504434199,0.9982726306222228,-0.17821280945998108,-0.3017999720845982,1.0472836372004453,-1.3615751170668837,-0.9357055492313948,-0.054777101561351835,0.4281421872902468,0.7927187677663763,0.2157213439148547,-0.3408224825123016,-0.211199889627736,-1.1089904018314114,0.42344700665743984,17.540275932903032,25.58086837325295,-12.778052391949792,-0.1485093559937098,-0.9878817696243627,-0.21049304618967146,-0.2440856365140713,0.23023051081317386,-0.2563922543845368
2019-08-03 01:33:29.013304,-0.19289414368238023,1.1350318988762,0.3292257513258846,-6.306518855191378,16.76710651927795,0.2045830988354801,0.028301829334584652,0.9980235217206498,-0.17689956279071128,-0.3564415405941953,1.0856301869216405,-1.3117190384307762,-0.9361860762916443,-0.05127791173172586,0.42817762673702936,0.8736757536282372,0.18814052816832647,-0.5133930661785159,-0.12523932300032736,-1.1260716000166024,0.40716787318916803,27.241697085131204,37.563786708378814,-15.698275059894936,-0.14795360551391634,-0.9880470392901272,-0.21530820520681843,-0.24415704928166743,0.2742836731218445,-0.2129148147875515
2019-08-03 01:33:29.023304,-0.05695689809613795,1.1292913513781957,0.3519863443671747,-10.393771942742402,19.800049446840987,-0.07830677978872841,0.027324860664501335,0.996839493882265,-0.17709369199033356,-0.3867206712479571,1.14225034963524,-1.3462001978156442,-0.9386486669405134,-0.0560890560007628,0.42968956542025283,0.5062332680808974,0.09369524106922503,-0.7320010549137698,-0.022489564154710717,-1.1211133858610098,0.4097817822537941,43.28950725251785,58.80734988927764,-19.128686630623722,-0.14605134941577358,-0.9838000786085286,-0.2182402213677249,-0.250557169298037,0.2677336408736519,-0.37953118179509543
2019-08-03 01:33:29.033304,0.2217784995139101,1.0687504701961799,0.4060651428516723,-24.49180443953952,33.161386983289134,-0.3155561500924178,0.026431707148671598,0.995124359746608,-0.17861774066390113,-0.4027510672344902,1.2005444715630054,-1.4377298758436328,-0.942384209138708,-0.05871243031273362,0.4358313749195438,0.06541726963597262,-0.308306695736414,-0.9187249568387543,-0.02334593418429984,-1.1222304360488018,0.43538523161938397,51.43892982361929,70.55874300936703,-20.235773479765754,-0.1452350415508394,-0.9810351750733702,-0.21924306288037412,-0.2904373580916056,0.2171453834800657,-0.5241743153601772
2019-08-03 01:33:29.043304,0.35227322843932873,1.1028927301914164,0.5020260324987545,-41.7333801638253,71.3679817876895,6.716980795956705,0.025855987762414226,0.9935530270698402,-0.18031615424300307,-0.4176209376463992,1.2593950142725587,-1.5163598008589687,-0.945092219648688,-0.08652138130873575,0.43582081532207373,-0.03299375952180547,-0.2632957852696422,-1.0393777192609601,-0.029545137103635884,-1.1428224376774399,0.446541400803347,59.54164816036302,83.11812095347022,-21.875686752934698,-0.14556305718017679,-0.9803174583421063,-0.21910072292833352,-0.3358936517922696,0.1469164250904898,-0.6104191808406348
2019-08-03 01:33:29.053304,0.6437082073179407,0.8812329485670104,0.4184424165030231,-23.19027493244719,27.414318598982042,-4.550146579350912,0.026029636771429627,0.9925974998777987,-0.18139676123472961,-0.4377372724934656,1.3069085579385018,-1.5352079974781452,-0.9561431539904813,-0.08955219542459547,0.434373525600386,0.12192998307543057,-0.7316319773671408,-1.0492072309644298,-0.05838450358665128,-1.1761378408164287,0.4651299441400791,74.16996567804111,108.54373453217968,-25.190584505567067,-0.14656028144530073,-0.980757764950863,-0.218194390530312,-0.3742843235916073,0.07743633935488994,-0.665249333324454
2019-08-03 01:33:29.063304,0.5835608034179042,0.8988472765158066,0.44910539592662935,-29.28907126422728,44.09460008323317,-0.6455038635134187,0.02661616171893605,0.9934780561597665,-0.17983440210555465,-0.4939906930385276,1.3802079000308198,-1.3696917047745814,-0.9678966223823228,-0.06913643448607538,0.440854880098615,1.6472890905433388,-1.4404287159714981,-1.6274846327802064,-0.11697676399035861,-1.18939861779308,0.5401590553497507,94.08950145314336,133.30019074392598,-27.960604976753647,-0.14767695436804062,-0.9822692058815652,-0.21694285395199567,-0.37136604343199153,0.04016001213305283,-0.6284131097716027
2019-08-03 01:33:29.073304,0.14182813526319274,1.281782627300261,0.6552144283433547,-84.37586857458716,170.51678450941876,33.870213413120396,0.0280600449630885,0.9965668667035092,-0.17498705599684597,-0.5903179470576457,1.463513366666188,-0.9818824796977996,-0.9708913437963159,-0.05542227974335032,0.45384180511198613,1.83571752669896,-1.4626812683709243,-2.265423596519368,-0.1314477024178279,-1.1939627575859664,0.5818265391709637,103.58467403336088,141.16054238516145,-29.232483664523958,-0.1484252882420249,-0.9840988235208714,-0.21573368561049372,-0.3108296802160686,0.05735562640724741,-0.5120837380263996
2019-08-03 01:33:29.083304,0.04724077057590352,1.3030149299894467,0.65399976600417,-115.2181883890462,196.36013006970666,45.845451736857015,0.0319775983895558,0.9975611308690266,-0.17333787195430655,-0.6098249675014908,1.3418273652214596,-0.7623768200662232,-0.9657980576613233,-0.044730738355821635,0.4663757140410305,1.5997653471876552,-1.4804158636135099,-2.7406054430906925,-0.11321891416163096,-1.197490451337688,0.6453767117400232,116.12369404369817,147.21150202692843,-30.20467865142648,-0.148325843412252,-0.9857566659488726,-0.2149591561923643,-0.1712396093162515,0.15264693777956168,-0.3039931052900032
2019-08-03 01:33:29.093304,-0.03680916635312594,1.2940241556870202,0.6347167730378769,-133.09440532663095,201.69378402536321,51.0059735257177,0.03183611960350557,0.9953042533369307,-0.17489669308447298,-0.5685227537596408,1.1680433587118721,-0.6511711066738854,-0.9617206996779761,-0.03851030467583137,0.4839972260972873,1.5855058463761613,-1.7626832222724342,-3.3661889908348943,-0.15254609666715208,-1.2304737536073564,0.7237824178419071,131.0871395016928,155.57476844578892,-29.69162129504438,-0.14797260141707386,-0.9844506871834331,-0.21451336724848263,-0.05964818764667948,0.2478505984381916,-0.37360422681876426
2019-08-03 01:33:29.103304,-0.11925686725748533,1.2768356893816315,0.6436283720071723,-144.02854539472776,200.20206357340896,52.37579698178862,0.03398839238423112,0.9957048153921871,-0.17548306374239944,-0.6148756905158279,0.9999782773697103,-0.609909631294981,-0.955549518816837,-0.03977866005466951,0.5066161498193607,1.1722369420132928,-1.808131112572582,-4.004767082257657,-0.20910647264513788,-1.2736839830432394,0.7521179136270052,141.297134976013,165.38436048857673,-27.726211401902436,-0.149415161212498,-0.9865566217704563,-0.21387235088280077,-0.0006456772460025732,0.21324717122440526,-0.4276630584310729
2019-08-03 01:33:29.113304,-0.1968951933669254,1.2912951183373842,0.6901465985129092,-149.3944156404835,192.0315545597418,49.36590536175439,0.042292987140593596,1.0005812720300076,-0.17422242950294095,-0.7714906919466917,0.8366386953403326,-0.6763434669553192,-0.9457588191778075,-0.05540247538568619,0.5085014324318161,-0.9068015118795416,-2.1905333057886764,-4.795496501709678,-0.24640744402979117,-1.2504686566323024,0.7845939580788827,150.74155980422387,172.69216261543244,-24.100117827940903,-0.14679625910039046,-0.9850567211693334,-0.21262901078945876,0.1130626256373905,0.334830526529718,-0.4390069588171052
2019-08-03 01:33:29.123304,-0.2421563191659093,1.3160298193069613,0.7631522826602045,-150.46509589528503,179.38960977454587,44.903119114685765,0.04523851758396986,1.002930269938277,-0.17327256084149312,-0.8196403777965681,0.8985282261852203,-0.6901507237144411,-0.9385376914645023,-0.07347010981702407,0.46908422623537416,-3.3329105425584395,-3.631193457284488,-5.1160893050640395,-0.2872491460631665,-1.232335520122432,0.8099894998212069,156.7658081531924,174.7156942957201,-22.124150645658382,-0.1451663339585705,-0.9839369670993117,-0.21194390713787079,0.16308168027562384,0.41404723090243983,-0.4843547569311863
2019-08-03 01:33:29.133304,-0.26929985828974906,1.3413446663890478,0.7912749782823953,-150.66253756217006,168.22816371308926,41.804283481075736,0.0315380857960884,0.9956899345353398,-0.17507293690968043,-0.5427479492191597,1.3822126143708546,-0.5048175715223313,-0.9517370308378879,-0.08617349245870519,0.3924880218092932,-5.081416079746113,-5.720443960788407,-4.437805333464316,-0.30523743294798056,-1.2320773993777165,0.8150212762451923,158.34415603112413,174.03419391517656,-22.06989156453683,-0.14519112744082976,-0.9843291087399897,-0.21186038660169415,0.1608534947193983,0.4274335360811799,-0.5183880186878569
2019-08-03 01:33:29.143304,-0.2711822017953476,1.3615499647231877,0.7843203646065058,-153.35967557138554,150.9429189185129,39.041230723567544,0.017730772767815352,0.9885810550589826,-0.17787439326309076,-0.2869250449688554,1.777307780879613,-0.29855735424851454,-0.9415049243227179,-0.09675875296523506,0.37153917108108564,-5.711724624201612,-5.375848826237515,-3.158213622298771,-0.3116150009429904,-1.2313332425953833,0.8203239537014612,158.70157424463196,173.77949201330816,-22.256006205380583,-0.1460665651888951,-0.9856019543223009,-0.2120540614270467,0.1316877095802329,0.38855066171368297,-0.5472994290742117
2019-08-03 01:33:29.153304,-0.26793393468987353,1.3746199495775266,0.7686478838249379,-155.90904499062967,141.6995053651338,37.94569342915758,0.022412960917237212,0.9925293343537274,-0.17821939364737163,-0.40749738757324727,1.5940829502055547,-0.2914225186747194,-0.9219493840383676,-0.09257350098082338,0.3883865458461002,-3.97715536357413,-5.888065977304168,-2.7996685670916595,-0.32543138889118584,-1.2295127464808793,0.8247271038604248,160.17441727648614,173.5096013431848,-22.063619064387616,-0.14762484354628608,-0.986897524892025,-0.21256664877021458,0.1097504102406575,0.3511921265743896,-0.5661060320006708
2019-08-03 01:33:29.163304,-0.27536108402682674,1.3510160720667026,0.6715810439459853,-167.72206850651756,131.508411145455,37.939055236851516,0.029062364848361076,0.9973298640907771,-0.17693359127902966,-0.5282960917349071,1.2889285728431374,-0.30327085020264516,-0.9170630152987003,-0.08302753739657544,0.39979712681984225,-2.929865008343057,-6.105360616171409,-3.1823578357999054,-0.37570602993064767,-1.2446717027686305,0.8056416081624432,164.16057872762713,169.20508500640298,-21.964296141228996,-0.14916347279954512,-0.987548420670536,-0.21313221184348435,0.12176522477673547,0.33534249151689227,-0.5792162506202354
2019-08-03 01:33:29.173304,-0.3379574715380352,1.3335139005905572,0.6641707676621246,-175.0357221679333,133.80014778849142,38.334789423126686,0.030222537773428957,0.9985460729594119,-0.1751152892403073,-0.48813656816501527,1.1033229285712987,-0.259644908715416,-0.917438179223264,-0.07350417264612773,0.40196002673265274,-2.541892167849191,-5.853844589004651,-3.3926723327541994,-0.4439359868632074,-1.2807934377940071,0.75767303040647,170.82849586001174,158.43969866491776,-22.49511323750978,-0.14989944301629468,-0.986945511214145,-0.21364335319887703,0.16722729606087064,0.3564593064220863,-0.5859729687455004
2019-08-03 01:33:29.183304,-0.3794591494385395,1.3379720206612253,0.6585801291962102,-179.2870658577774,135.37783268315803,38.50953880255485,0.0301566327545928,0.9976962222922258,-0.17288421089283132,-0.41054396762713247,0.9502295919344828,-0.1974048883153809,-0.9118675177831327,-0.07714820701865155,0.39897374554220427,-2.193816405937019,-5.688315528941451,-3.299893137362613,-0.4726306001766009,-1.3083524516851266,0.7301265011106963,174.75376959414714,150.9105619657165,-23.145041673550637,-0.14694535646437276,-0.9874361064226653,-0.21087081644409178,0.17476007467212615,0.21338167756878498,-0.6438980033830929
2019-08-03 01:33:29.193304,-0.38711775250703107,1.3448664888909283,0.6598300673801367,-179.81397976313647,135.81252887807693,38.84419007984987,0.03145700372153883,0.9959341622760528,-0.1708767218121362,-0.37768639477170457,0.7994330668473801,-0.14480757590734744,-0.9013183767703068,-0.08416154567770417,0.395693287071595,-1.4416685537834115,-5.61619177533478,-3.302034553062353,-0.4810524000233399,-1.3208895046522922,0.6900297118689205,179.75995976558215,144.24680239378557,-22.33607102798225,-0.14690049729265114,-0.9836875175967575,-0.2132259722289717,0.03533609894739999,0.48294477761189175,-0.5261489378580333
2019-08-03 01:33:29.203304,-0.3833974813097775,1.3453428269359027,0.6610275022204731,-179.1472385050319,136.34085048607815,39.4977004202451,0.03414068961970145,0.9941891684083677,-0.1695302874068634,-0.39356103258020586,0.6658721591529105,-0.1207104008906694,-0.8986684152782283,-0.06480432958272396,0.3974490092938727,-0.09502576036330829,-5.032655853893393,-4.263830745723281,-0.4903005049911356,-1.3252472094492818,0.6287130290483868,187.46673979784197,135.59861612535263,-20.317496003087104,-0.1477966242397247,-0.9892303345295664,-0.20288854340146179,0.10522773673257228,0.43956744181334206,-0.5765164100280107
2019-08-03 01:33:29.213304,-0.4286089325969922,1.316895338559064,0.6599531079918448,-182.82456114075353,136.58000108789452,37.77523937615777,0.036527718745689844,0.9930884263609379,-0.16926156512381882,-0.41379122753822295,0.6000265425722797,-0.13566766230352556,-0.908741949876908,-0.03343581228306337,0.41562546831426106,2.5782314709440115,-2.7074199371407937,-4.926803210865106,-0.4971991943402642,-1.3222294744599479,0.6105305563041931,190.65500984648176,133.16002416878007,-18.9377091362898,-0.14873552470191698,-0.9857801922980591,-0.2102312951721156,0.07075729018166557,0.2316083957090184,-0.3530421010814849
2019-08-03 01:33:29.223304,-0.4985022030899638,1.2693206150928642,0.6488237250416693,-189.4310285774697,138.10852190183607,35.82232590428756,0.037144764628883616,0.993387768483945,-0.17046620346722657,-0.3983727985830954,0.6463820375620375,-0.20256859426195165,-0.9099191614031603,-0.021346259757959705,0.4434482985842321,3.785041308198743,0.18620026508378873,-4.4166049865272345,-0.4996435347362786,-1.3153602710275236,0.6105644082350417,191.06730075130108,133.80724303335475,-18.382255468331238,-0.14814578682765986,-0.9835375724122477,-0.2138992002570573,0.058748871235514324,0.21340196154342622,-0.27224999954773316
2019-08-03 01:33:29.233304,-0.5656603757586336,1.2168142138409215,0.6462281706529122,-195.91837462357628,135.65956150233177,29.37132520301168,0.03447488745881277,0.9958103368058131,-0.17353859194228094,-0.3064389235782432,0.8504341574512974,-0.3337272212740387,-0.9149093569566207,-0.022484579651996496,0.45301889404669915,3.8888730972921075,1.3341169633474195,-4.234364370047484,-0.4961620036277273,-1.3084546932121304,0.6001528370038987,190.89858742368298,133.90789144928905,-18.693408566289673,-0.14684801553159627,-0.9836186104840067,-0.21319209058001892,0.06937798121893804,0.27988088097145786,-0.30345211910091857
2019-08-03 01:33:29.243304,-0.6603829834357399,1.2299873819669025,0.669851540521193,-198.74777260369223,127.44396688324451,20.189512192281416,0.029940012429916424,0.9989301587507542,-0.17606996687887136,-0.1999503789419499,1.0639908195875654,-0.5047158746113383,-0.9241039578963307,-0.0334788240122294,0.45763698615594606,3.1489549559912287,2.3211692485274114,-3.704289966146896,-0.4933565061738888,-1.3026149969738,0.5794772251664617,191.647797732073,132.70716845789383,-18.869654643945605,-0.14567454603886715,-0.9846756746092018,-0.21208859168067384,0.04461707200718696,0.3371693822178431,-0.35673865322846354
2019-08-03 01:33:29.253304,-0.7206955426004087,1.237792365209643,0.7117097371890018,-198.0261230402612,118.20873365611523,12.551027779891564,0.03295023791730467,0.9955409596900354,-0.16892035126083013,-0.4102429322193188,0.6514499904837988,-0.5780083895427673,-0.9313573490639628,-0.04288394972137477,0.4549943311764067,2.0797592957375164,2.2185747584229665,-3.4039491991726663,-0.5062420560622877,-1.2953070791151258,0.5754581796495326,194.46868298765034,132.09056980657522,-16.758463839995322,-0.14540004730734554,-0.9866083926998447,-0.2118355136070855,-0.029824326681794605,0.2794199907693622,-0.36152326578889854
2019-08-03 01:33:29.263304,-0.7374604362856738,1.243754183138278,0.7351579531883132,-197.95310289675677,116.23224133199217,10.784370356336844,0.03264570068937809,0.993936082151285,-0.16645312773135537,-0.4984564082836586,0.507283856519045,-0.6238761917631649,-0.9347195957066217,-0.052976076823444136,0.45025933749332575,1.597894975983621,1.810408537681238,-3.2744568368992337,-0.5493458096151655,-1.2857459513589948,0.6135156847543579,200.30036072805805,133.76926202693753,-10.384007094197816,-0.14547698060441117,-0.9883898105510838,-0.21094041283708795,-0.1041908146715946,0.1478351289963177,-0.2265493427796828
2019-08-03 01:33:29.273304,-0.749615908918123,1.2407423047571524,0.7589633454786956,-198.63492458112736,109.05567521345066,7.167104263654423,0.03030426064527763,0.9938514545820183,-0.16765124879839824,-0.47369315093664893,0.5749000575155777,-0.6421233674807864,-0.9353120903191828,-0.05729354576738771,0.45407106966774663,0.885297430160743,1.605739750070354,-3.171366519741058,-0.6254022767546369,-1.3142689171931832,0.6960639046312772,204.20251121744167,136.4655478004327,-1.8613178572542404,-0.14194505895533502,-0.9876744874769581,-0.21125516698630742,-0.24662977743351028,0.06213721426255238,0.05462200683665397
2019-08-03 01:33:29.283304,-0.7658442224765201,1.2364734687077554,0.7901080785706444,-200.21093665605636,91.34376409740757,-0.730876746436435,0.02797876659205459,0.9944631117017297,-0.17042941970819436,-0.37490166881950465,0.7329797170496825,-0.6290185718773771,-0.9362948090556823,-0.0669720540545574,0.4553491592917079,0.03982444520887637,1.6911269362673182,-3.198095057958323,-0.6628067844271305,-1.3397536133219032,0.7242656687294514,204.92026952898652,137.42816146976807,1.8167847552437613,-0.1408742289805138,-0.986329452097407,-0.20898559672819214,-0.2745107251912792,0.00029402614066665483,0.30562939959344665
2019-08-03 01:33:29.293304,-0.71694027906373,1.2600973825284973,0.8052054512625166,-200.93526045411838,73.06501299772238,-6.565591338303966,0.027821112899699345,0.9948727709905614,-0.17260218949218625,-0.2446522456377517,0.8532966546367886,-0.5796651548916891,-0.931593516657548,-0.0673068827300733,0.4591874013075602,-1.185926450146777,1.2696639701874644,-3.1199946813777064,-0.6757552071956101,-1.348021653559139,0.7092459628127172,205.5291533033472,136.67892650427328,3.4686289009067774,-0.14950988966227555,-0.9911815845832371,-0.2137674386644456,-0.41560196946629646,0.7214310671124021,1.7351751298902067
2019-08-03 01:33:29.303304,-0.6679624281668299,1.2349395741827425,0.7934255488584281,-200.70651402179314,63.69962128474034,-10.304679710135153,0.030188734685302074,0.994428564423214,-0.17291263633670384,-0.13163596969270755,0.8283358773708137,-0.49752495249166057,-0.9301634078129537,-0.06281113788774922,0.4523003412860036,-1.3947326759502,0.7653164884569039,-2.989293039701427,-0.7125718349404,-1.3566491518515262,0.7091338054434196,208.19137324335028,134.96361319893415,8.599513829967801,-0.1467169612420988,-0.9959338041957045,-0.20972789854909996,0.045680930695353214,0.8624507225631383,1.8051294680637224
2019-08-03 01:33:29.313304,-0.7934734115430475,1.1531453535811893,0.8339814332921717,-203.89090291965317,57.61788667177344,-21.9891095709315,0.029746520202673984,0.9936763122035444,-0.17315715472563456,-0.07842399851378709,0.6731267736675011,-0.4013568890266842,-0.9227037434001768,-0.05379769239718446,0.4242200244781203,-2.6647357226369803,0.8072796877677484,-3.446867918922162,-0.726223904459845,-1.3584956953525913,0.7392288804655951,209.9182958524709,127.68499676908691,17.410181293164374,-0.1442291761846417,-0.9987651790000701,-0.20656300269806893,0.22160651675814058,0.870115918158958,1.7755942074626345
2019-08-03 01:33:29.323304,-0.8847631284546729,1.1791972948912934,0.8711232071907885,-201.56520030434314,57.86031869370994,-25.105325096631326,0.027818825847812232,0.9942187348687574,-0.17236619208993784,0.017025275599086623,0.6095311170898504,-0.2276041476569087,-0.9410103044117419,-0.062334194141086735,0.4284822911539032,-4.616981154334935,1.9887020279314995,-4.413934387702268,-0.7342014591181304,-1.326110743169164,0.7205772815022806,209.28197620570086,124.55371963846363,21.256990027097473,-0.1435076523774366,-0.9997092445653958,-0.20563532035581206,0.15816664707414696,0.8697751263956208,1.8314149868901395
2019-08-03 01:33:29.333304,-0.9030537292463507,1.1854238993155835,0.8788569690705024,-200.40661718978214,57.006854365369605,-26.053707835328375,0.02637517080325117,0.9958932722794847,-0.17154120575618942,0.13170000452737568,0.6109537035686589,0.009688777127449366,-0.9392176791333517,-0.06842611439484893,0.4218478964402813,-4.814800452720105,3.377570027273044,-4.4813404665318,-0.8146385352981351,-1.1965995226716275,0.6957744365578516,208.69146957707227,115.42253469921043,29.52370368611937,-0.14506614759382683,-0.9983269613702185,-0.20678275888598932,0.18284800628601483,0.9379374783368719,1.9070249700074084
2019-08-03 01:33:29.343304,-0.8890637971888007,1.2445244240507378,0.8732775871473494,-197.13124623017995,47.48131696645816,-30.81598257701264,0.027581104665827347,0.9975343314213997,-0.17288823550095356,0.1674927678728495,0.495750934363158,0.2506582959258902,-0.9373964713685764,-0.07611135442062028,0.4139261939764485,-2.3134825195760484,4.848407617992181,-3.5008147391166613,-0.9910018912847637,-1.105130342385062,0.7496174719331076,205.39501635198187,101.94561107703592,35.78437662705797,-0.14913678193326638,-0.9946584786357375,-0.2101773276422685,0.5148163922422981,1.1565777213527928,2.011493808541882
2019-08-03 01:33:29.353304,-0.8670026881031623,1.3019156096263418,0.8687368812691663,-193.78556922981014,37.30733988465476,-35.7834104742468,0.03243069622296847,0.9978170954407581,-0.17675311456529014,0.062146115252235,0.27198907577545994,0.4551639372504865,-0.9416859413910689,-0.09128978298466142,0.42334040094866265,-0.5846877432968682,6.0902023717845415,-2.4824079005818804,-1.1284085027133899,-1.1581277255460074,0.8375372632954348,198.24199609952188,80.28915835069378,39.65021437416468,-0.15316224075080048,-0.989584446328063,-0.21434160542628228,1.0810691721073151,1.4415595232380978,2.0484513206940136
2019-08-03 01:33:29.363304,-0.8247596800199152,1.2788197261565648,0.8626272403095183,-194.60239320592487,30.6500703112425,-40.397831822204765,0.03431903952891878,0.9952680560052527,-0.17289630602997766,-0.002082557679434683,0.990130803882519,0.7084949970282078,-0.9539241550423083,-0.0993324125431074,0.42871368155222384,-0.8497089203425873,6.527073830438336,-1.9012835579504697,-1.0780395486231469,-1.3279694497218046,0.8693776293735392,193.10638105400065,49.7530918996785,44.10454247208087,-0.1531536847079248,-0.9852703325576382,-0.2167295173298599,1.1204034788099813,1.6022206984062377,1.9982851099348569
2019-08-03 01:33:29.373304,-0.7777516832772788,1.2165478568102268,0.8223052158781636,-198.89702172396144,21.844460447460914,-50.57859973939018,0.03522960655703407,0.9942142722705579,-0.1697386091836249,0.04057811421399623,1.3808311521818417,0.9696925875638183,-0.9495706260350177,-0.10414279817866826,0.41551363005711606,-1.5220072927498993,6.724617759547326,-1.937847826675335,-1.0095877741174395,-1.3940497501125253,0.8617568360731588,191.74832100682056,35.105914613127304,47.048092725807,-0.1587002848188828,-0.9814217894719948,-0.2207368796778372,0.9407835145944791,2.0464627912727678,2.0854128326083705
2019-08-03 01:33:29.383304,-0.7791085505707872,1.1734646417049457,0.7468691632150063,-201.7906072165672,20.512075757075753,-59.22896530907502,0.0357872654416456,0.9946806595429852,-0.16916385860521008,0.13726918835101157,1.301047262265931,1.2039307404195605,-0.940250278591047,-0.10838790475164431,0.4087295043568722,-2.5712844815714146,6.120378227060964,-2.118946820643906,-0.8893396612368146,-1.378761957680529,0.8018837089186615,195.70148232477976,22.539523127599566,54.21677784539224,-0.15351964016360745,-0.9874675372778995,-0.21118138305461948,1.8036139095869006,1.0904924448217712,-0.42399400113544183
2019-08-03 01:33:29.393304,-0.7880094997363875,1.1737253291084857,0.7049868885803581,-202.1678489953288,22.750355761897012,-67.45325366402413,0.03590311466203401,0.9961788695160586,-0.16945661059881037,0.2734568852267065,0.9790371430529379,1.4061458888691127,-0.9445461058139016,-0.11234237458928298,0.42295907859783555,-2.6915145042615545,4.785880597388858,-2.0098580380783133,-0.8403826968993848,-1.3471209194256446,0.7434537230447419,203.28258299056077,21.288981805370373,65.49654716724999,-0.15889629944179723,-0.9851724459644009,-0.21186247994494703,1.5248066206979105,1.5130117690919758,-0.397240285486399
2019-08-03 01:33:29.403304,-0.7645022173324475,1.1470079076630408,0.6727921210714827,-202.65559564901807,24.585195551076467,-74.18906288568904,0.035565375443216925,0.9979000369171267,-0.1699016081269205,0.4004501226462492,0.6008116601787975,1.5568092126228743,-0.9602188453184953,-0.10328659920743015,0.42270113805306175,-2.7028192178095582,5.568838216176064,-1.5474244829828494,-0.8546991181455063,-1.3323174601075132,0.728640994935267,206.17858873229397,23.88760857556052,69.68399384203697,-0.16129890601800792,-0.9863859593915689,-0.2115815754189347,1.5607950671436284,1.6250508026157613,-0.5097576125388317
2019-08-03 01:33:29.413304,-0.7477433788872884,1.1066393407170387,0.6604937806402635,-204.03513374057002,25.382403938739152,-77.4819441950235,0.03473250052145494,0.9991325104345451,-0.169595314782673,0.48186182016912465,0.35565375104189795,1.6433786100009766,-0.960494881990075,-0.08071195363040258,0.43539958278330604,-3.1759826147992007,6.080275243916123,-2.391724880919341,-0.8762022694688294,-1.3167238443736664,0.731964520691518,206.6552524944119,27.77018673456313,71.89143035666524,-0.15965683052029253,-0.9899742028244651,-0.21159850644690556,1.6990339326189927,1.5843091994064091,-0.7578771938740427
2019-08-03 01:33:29.423304,-0.7503795972700229,1.006975580979671,0.6231365270140861,-208.2331586550442,27.266278270078352,-84.52237730685835,0.03354610233232898,0.9995445726354781,-0.16889579387413697,0.5116886447075383,0.27885933345567376,1.678889078554564,-0.9707462313155555,-0.09734851483061625,0.429662585910743,-6.026885933614437,5.9645149120545815,-3.130924537227028,-0.9053204533315552,-1.2698168142214559,0.7304195976039927,209.89297921079378,40.63058623182286,81.11789526254718,-0.15554877971527337,-0.9926774009147827,-0.21223063374393955,1.8106099631527428,1.4968035347516306,-1.0504393069948914
2019-08-03 01:33:29.433304,-0.7773215462959,0.943590963954518,0.5780620886489539,-209.38822644564868,29.9429426117886,-90.7572379162997,0.03217495917569424,0.9989364373616043,-0.16864415656497772,0.5002149392743457,0.3484813475886439,1.69083632722731,-0.9663519843932517,-0.09819447318911721,0.41476077243707216,-6.808730349418914,5.763887765195598,-2.79599908330287,-0.9057443319727551,-1.2609102498186717,0.7080531744930905,212.48141338421425,53.719353197698226,90.70620855002757,-0.1538201975064769,-0.9893588851408316,-0.210987285429112,2.0690960459006105,1.2219203196454378,-1.4023315787349517
2019-08-03 01:33:29.443304,-0.815153958648183,0.9433848099450791,0.588188275573485,-205.11285500721664,28.618958606919794,-95.90160850269092,0.0307871800786967,0.9971060537979954,-0.16965552371741044,0.45846269203686596,0.5448091404892671,1.7072679261682353,-0.9692692060586049,-0.09711527189528696,0.40902891015786497,-5.805255542781422,5.5314102777739285,-2.984201437589627,-0.8350044728472417,-1.1990759479822544,0.6744969753560901,212.61588641112377,58.82145802567741,99.07078703550955,-0.15155269932997362,-0.9873441352205329,-0.20798197072728053,2.3701768678243695,1.5643117980051986,-2.22798976624671
2019-08-03 01:33:29.453304,-0.8160469496413355,0.9501294648582997,0.5922944166651765,-201.11669507979647,25.54697182153701,-97.99329396907848,0.029929439985304947,0.9944351298345439,-0.17228524487892052,0.41543967715917673,0.8083990549928359,1.7557748973261895,-0.9642593550379616,-0.10272899939511461,0.406778414303553,-5.552614748471282,5.962214374785285,-2.525450178500434,-0.7709089211921573,-1.1373626833925388,0.6603719810315656,213.06976565746405,59.89539171184742,103.93345198278304,-0.14850348029255253,-0.9877872016230006,-0.20574394052938177,2.501059256774445,1.9253669155709545,-2.7764150418649343
2019-08-03 01:33:29.463304,-0.7501911491152946,0.8690991842448151,0.5891222892614695,-197.81974376910634,16.8726276342717,-100.69707748110217,0.03829460061057004,0.9985668780448542,-0.1744714322580935,0.8184136144995329,0.19802884642138385,2.0259410942449474,-0.9671300960285865,-0.10916664201324651,0.4122304542736423,-5.77621415645356,6.105730385055636,-2.231449126902003,-0.7703105369432863,-1.0858219386644705,0.6418758725380196,212.53941177845243,61.8858904907169,107.36243545005141,-0.14695646189021722,-0.9878746769586568,-0.20708432598603085,2.4728770474540616,1.904941473622823,-2.7435157479433814
2019-08-03 01:33:29.473304,-0.684154125257121,0.7754396034546598,0.593152982518971,-196.4018406193404,7.987315372163556,-103.71015694247284,0.043860158147839945,1.0020800102742484,-0.1754769528925879,1.0364046179308875,-0.003177133793573865,2.1911105144459504,-0.975699264972883,-0.1180102077183676,0.4204545024697643,-7.059665126908544,5.850795299463114,-1.1557334943978572,-0.8040379304871624,-1.0597684615264555,0.5990011936411072,210.03751194242025,65.7632246727204,112.1066267211416,-0.14702277768815894,-0.9867734801901697,-0.21083330809006287,2.515860018684966,2.1066353399146727,-2.909121875948846
2019-08-03 01:33:29.483304,-0.6771740243229182,0.7606689439176196,0.5938964390743796,-196.84671386409113,6.350860064538118,-104.39963996317896,0.041342323244259724,0.9993859957592528,-0.1757309104940173,0.8340946813117248,0.5609004921599776,2.0888750587455753,-0.9610498476346208,-0.1161691201024004,0.42133243915164986,-8.385285057797889,4.292382205505991,0.25364654175106643,-0.8278214205628448,-1.0454806731187947,0.5452257453461232,204.26744656667074,64.21141825530862,115.46434336961376,-0.14573840363770685,-0.9839886383475615,-0.206927277820361,2.5266160560082933,2.219092971787056,-3.062799023867049
2019-08-03 01:33:29.493304,-0.6719923497909401,0.7322214400021847,0.5664029567134439,-193.65957186180458,2.374041975019512,-106.19364752368145,0.041274674973671356,0.9944860305401041,-0.1754853926536306,0.8239827977871597,0.4430287011753847,1.9357548525732517,-0.9263950171329964,-0.10241479540458416,0.4238596407218361,-7.225968345365646,3.195296500358786,-0.5811775348099575,-0.8208008284050703,-1.0348769706816345,0.5259281430252907,201.5267381019436,62.769338803897575,116.58184261071881,-0.14332877869566277,-0.9887270051021064,-0.20484807065077087,2.469719620703551,2.2562009293273615,-3.0189468029901643
2019-08-03 01:33:29.503304,-0.6741365276678364,0.6782931485547945,0.5571003595195431,-186.48005574958907,-2.260547968866729,-108.46160132377412,0.04865986587712972,0.9908785250371915,-0.1750780515975835,1.2977535012175707,-0.9799685197635987,1.8444188081236554,-0.9365473447961233,-0.11812623247607196,0.398012452409622,-8.764785411648191,4.51388541882472,-1.1537221530551667,-0.8107928680373551,-0.9868456679160961,0.5252687330492446,200.75923733699494,60.25373103224446,116.99733168943038,-0.14167064489403083,-0.9931536755683091,-0.20217829199934415,2.404202090736749,2.116764662398804,-2.7634840390658426
2019-08-03 01:33:29.513304,-0.687585853802629,0.6551203734922776,0.5988515852277825,-179.95679694759244,-4.767612561764497,-109.93423046039229,0.050881410683339366,0.9901721045506778,-0.17436537316762968,1.5598241627843379,-2.0960981146545454,1.7299890319603954,-0.9472590125864816,-0.14496438887384433,0.3871144098500546,-10.482430218967195,5.811572839277351,-0.5802705231581402,-0.8260224475538305,-0.8217946196343292,0.49883303994930805,197.20335808032206,51.2712040501628,119.1166544803024,-0.14169372517471732,-0.9925582733533159,-0.20178611059577617,2.3323739945184485,1.9017730615964645,-2.365553432614908
2019-08-03 01:33:29.523304,-0.678316494984182,0.6300282002474801,0.5889306707696624,-176.26818122288432,-6.19160737216482,-110.43295610580381,0.05228570793406108,0.9928256674887423,-0.17611045869158,1.6942458949143848,-1.8577138355030498,1.1748623090477666,-0.9567925331200768,-0.14808427696568363,0.39236973269422476,-10.283570198357404,5.37659768697848,-0.4079686077229239,-0.9363498389200946,-0.6783005619564416,0.5378080612271698,192.16853412840985,39.07379360635935,119.49036026704455,-0.1417016796065344,-0.990027152346254,-0.20517643378499636,2.2904719406812335,1.704359982284849,-1.9636703524551709
2019-08-03 01:33:29.533304,-0.6684190177249375,0.6123006549713035,0.5699276316235298,-174.80453007753627,-7.10394426720649,-110.3400054084847,0.06111299538972095,0.9950378370397956,-0.1787618075994876,2.1186484496077136,-1.5574560313684351,0.5893252609988923,-0.9535198527601926,-0.13273966615409527,0.3842848518211142,-7.020889524247241,3.931092259024564,0.2220225381690376,-0.9939186687542614,-0.670060208847489,0.545691928626204,184.2347398453176,19.954793035476758,117.75835411711951,-0.14057253267485995,-0.9902301951840801,-0.20600492163606274,2.2489947583127177,1.4311481861743967,-1.5563043061118345
2019-08-03 01:33:29.543304,-0.6663684865868651,0.6054146541904145,0.5676692047712697,-174.5053807645209,-7.784236770270674,-110.13221228187392,0.062493619398915165,0.995336400183743,-0.17750757865176822,2.250105553770075,-1.7410392843638756,0.611326283994281,-0.9387922143546901,-0.12535799678697088,0.3945018191570311,-6.015484052898921,2.9220426288575907,-0.39133307309375337,-0.9553155924893932,-0.7159635903288146,0.5253061584208396,179.79968351525198,4.727380336968318,115.5678284482122,-0.1386472137757058,-0.9855699294803597,-0.2021174627231764,2.2228436669723086,1.2984943608675372,-1.2387787650885989
2019-08-03 01:33:29.553304,-0.6628459407841123,0.5982109977673638,0.5686378391420865,-174.3479431604417,-7.951921701082367,-110.11439988741536,0.056881900072727004,0.9958463909414206,-0.1749689301800434,2.138837007318182,-1.682425190869807,0.6474699264558783,-0.941908456756697,-0.14872097815835666,0.4241142551083261,-8.979540894692953,4.09061978065954,-1.3177761520151179,-0.9107404200400758,-0.7399889287092781,0.5253643036252159,179.26868665795922,-0.5873770529386071,115.35072139410507,-0.13717826000980693,-0.9826607603392338,-0.2011997767159837,2.165619551013324,1.219961231534159,-1.0682266160209486
2019-08-03 01:33:29.563304,-0.6486496099849399,0.5802849549981528,0.5590829163485864,-173.36307754298264,-7.438284108530258,-110.54969383034009,0.04510593667235444,0.9984826869077642,-0.17376869753572466,1.8437701297764453,-0.7051487157888976,0.1366908294712263,-0.9398314672757007,-0.14756936544909355,0.41934096288137096,-11.131696677247097,4.874094629783727,-1.7310952069769114,-0.8002146558795868,-0.7222328827472319,0.489623820077497,176.01676064468876,-7.032299670166516,119.6027594136147,-0.1462019823199892,-0.9864185044853411,-0.1986163748105787,1.9197503951568031,1.2030426683545716,-0.8169238883805389
2019-08-03 01:33:29.573304,-0.6163723404387755,0.5428119378552999,0.5279766056464901,-170.7515772520153,-5.993761874538151,-111.69240663896345,0.03639132302761407,0.999735918284474,-0.17644330521541637,1.89340719969085,-0.43914014473161894,-0.33058177941568795,-0.9291046847369074,-0.1523510775046668,0.4079793463506335,-10.47471917134724,3.4934643565201116,-1.456348991572707,-0.6065544667547749,-0.9114421595154214,0.5189347732299345,178.0178578261584,-46.61101003909619,107.9539471452642,-0.14668126637298753,-0.9931165445092678,-0.20228481573383178,1.8549351676896302,1.006536879010116,-0.9572798052186772
2019-08-03 01:33:29.583304,-0.6049948961583741,0.5373512690743872,0.504070643611725,-169.8732287795694,-8.692638814056025,-110.91236744835192,0.035079228057826185,0.9953155754089547,-0.18057936964638444,2.1018662700205937,-1.442651011755196,-0.11577933374362608,-0.9397506618327418,-0.15967959583319888,0.40301869650049876,-10.364431255214935,2.673613158313266,-1.0156093913010404,-0.7000957879732906,-0.7065329423012957,0.46292885929347405,174.55854604080287,-13.199647191051024,121.81979357435708,-0.14192649500748625,-0.9962833099940094,-0.19926020456890195,2.05868419452947,0.7081048333896006,-1.3400812739193215
2019-08-03 01:33:29.593304,-0.6115798729088731,0.5522608766219702,0.49543317052321567,-170.28527852477688,-12.892721785297313,-109.27555375472215,0.03248662173007663,0.9900140450873928,-0.18139914361848603,1.6800211002526368,-1.6142196968344216,0.12094157825798599,-0.9512187069820812,-0.1613475422648597,0.3950269053485358,-10.124681846540655,2.573672009676767,-0.3639450322705545,-0.8546128666155145,-0.49727728631172724,0.46486799718222266,169.0192145324549,23.52897878176708,136.58563220520432,-0.1432135584800288,-0.9930716469475923,-0.19901550790629854,2.2211174050096996,0.7823572142294217,-1.2927638879196486
2019-08-03 01:33:29.603304,-0.6149026201547737,0.5512592973479921,0.4905410048475999,-170.3650998252978,-12.421595244928053,-109.3497925276209,0.03090753512068966,0.9888409343720004,-0.18054435902149457,1.3002006309900607,-2.0593565578087993,0.225993839548783,-0.9573707896332725,-0.163226104727136,0.3804836723227968,-8.695861883160518,2.739727478543407,0.5018653590934211,-0.9240415956289428,-0.3887661651410524,0.4714701276165417,164.38915866651598,37.0646627677751,145.72859464389288,-0.1442759192881185,-0.9922549745295042,-0.2013786059908057,2.2871490518426243,0.8843591868553315,-1.2193267523706808
2019-08-03 01:33:29.613304,-0.5982847727340354,0.50328412996715,0.48635212060485533,-168.58101660364864,-2.1160483996945363,-113.3551072572034,0.031791105953155485,0.9909436213193945,-0.18016330303979505,1.2008331751189854,-2.4513441591891003,0.5376589357550595,-0.9567948764832078,-0.16532606993598037,0.36850327487090573,-5.713327253801628,2.094469110132243,1.414192657307451,-0.9385974147070699,-0.34926540514619153,0.4437594071069812,159.0381187404786,31.00341167880746,149.03529820575707,-0.14190503883018887,-0.9934730643648009,-0.19967971774503462,2.3389883069859723,1.070229455272484,-1.213717479130393
2019-08-03 01:33:29.623304,-0.5860234611661953,0.4362109329928002,0.5290921935711672,-165.28890442951754,10.720634548206377,-118.826568443021,0.036314487863813055,0.9938734016034237,-0.18232962069601782,1.488998401972527,-2.112162068476029,1.5107544560453288,-0.9562839465758016,-0.15847543184575796,0.39375408510341275,-4.220626284454376,0.6512388977296112,1.680556946897021,-0.9163202398774382,-0.34909518397736444,0.4312504365596256,157.13061477845002,26.527758420417676,149.81763708262724,-0.1384964768385356,-0.9947186750926321,-0.19400553894332545,2.4193548292407123,1.3252791790687404,-1.2313835535535005
2019-08-03 01:33:29.633304,-0.5984423364698951,0.35635889353733297,0.5632483125081419,-161.63849305318976,17.717081172742173,-121.75283591891059,0.04397246238982274,0.9953594698968983,-0.18577550333988196,2.0127702636661815,-0.9102344282679063,2.9905625603336397,-0.9550621881309288,-0.16547859918793406,0.4084257961695554,-4.851529297960713,0.9665410643715369,1.5240901111486775,-0.8150836212606827,-0.3624232739837596,0.39891645275193605,152.1574160193264,18.208793905701473,151.85086532934113,-0.14184741890738184,-0.9909698533300806,-0.1991535245044733,2.4695658555459086,1.6631720701608628,-1.0551215814844732
2019-08-03 01:33:29.643304,-0.6191729037327972,0.4055698385058879,0.599052300303212,-164.56612405110852,15.419372288767805,-121.83885981669069,0.04977710380333699,0.9946313838495914,-0.17922210385465653,1.7990895693294753,-0.7014047330333834,2.9033161739547397,-0.9649679345283578,-0.17722141920351028,0.41768309150328803,-7.767599218116641,1.856972930041335,1.5958894013812759,-0.7420561351768886,-0.32615032349749457,0.3295365234524677,147.1717156238933,15.69173655077993,156.0481792468078,-0.1423257516265936,-0.9877854087128798,-0.19995581789442293,2.4083545675768256,1.8904530905329522,-1.1275249858049952
2019-08-03 01:33:29.653304,-0.6382007207387395,0.3518778524377181,0.619441287273174,-162.44609667071782,20.72671128849572,-123.30132130174688,0.0576566192680351,0.9954063821117282,-0.17950855438455934,1.831443016444044,-1.0250890592075836,2.8536917171696095,-0.9498264994122029,-0.11690671365354888,0.3969792698379269,-0.5565323843167995,0.19189634701430175,0.3517575864862706,-0.711980473987054,-0.25877198370703125,0.2921889505923846,144.00511466393277,23.62598860679681,162.27436154959165,-0.1437434443908342,-0.9921499096079911,-0.19963036894989025,2.6100395578078577,1.7241614973371138,-1.1542455116723238
2019-08-03 01:33:29.663304,-0.6197997636519931,0.19132089142640973,0.5610391018466255,-155.70297754017807,30.795643433759746,-126.00250434799122,0.04831585473501239,0.9940334559543086,-0.18426529187009208,2.1337799091788243,-1.3479894329599624,1.079503368263583,-0.9493256857950592,-0.13292035028142477,0.3905973989845244,-2.550935011827807,-0.624576635297544,-0.04588739306670371,-0.6850243258040551,-0.16868657098982517,0.27651234953019144,137.03833251587696,48.55604564901888,177.16446545572654,-0.1413265028617149,-0.9913930058369129,-0.19822005465646833,2.722702466523211,1.3382562718782318,-1.247466358797033
2019-08-03 01:33:29.673304,-0.587213228053274,0.1270159410628678,0.47861295454109,-151.16295504408103,38.438105221273254,-129.26343807475388,0.05541458338003078,0.9934899079991392,-0.1871071234983713,2.21734935515623,-1.5626818742832773,0.89569255713822,-0.9425326910773941,-0.11132720829165323,0.4058026409932,-3.4761172461085637,-1.499883102134619,-0.5264988741270376,-0.6993161510115794,-0.1838763229564587,0.2708355710769339,135.13628167552045,50.01373207407849,178.11282180437496,-0.14192756977669976,-0.9883373226574216,-0.19430452050323402,2.95704398536779,0.9983904543346183,-1.4118600039209483
2019-08-03 01:33:29.683304,-0.5761171515091851,0.1121308407554811,0.4419419532663679,-147.89613940466606,43.2554019260231,-131.63301013488487,0.06132412517382205,0.9936531539356442,-0.18582535122130542,2.2551525610649747,-1.7359867188481362,1.3105077083710626,-0.9269495494821297,-0.11197113207129678,0.40507283900491914,-2.0907507754950636,-1.8536059650514336,-1.7783384539919662,-0.6952915029618472,-0.17272971004503382,0.24896829906677517,131.64640133988118,58.91511011746844,184.1071976765742,-0.14177387738957498,-0.9878823506635724,-0.1943844816066059,2.991763601026749,0.9551063693440468,-1.3873527970576014
2019-08-03 01:33:29.693304,-0.5799864628163992,0.11163787512811242,0.43454603778198125,-147.58472711055603,43.72515877016596,-131.71025809451874,0.05117850058361924,0.9944147000598157,-0.1816347588436775,2.4066776704813635,-1.7504077671778433,0.9632450489798474,-0.918928571431791,-0.16229436171400538,0.39252611052598124,-7.709354792826021,-1.3091918969547605,-1.760108879046619,-0.6789955313829978,-0.12415060033862646,0.2101811338606264,124.07424059871177,71.03081627572276,194.60326331437267,-0.14285096233086117,-0.9860143890842848,-0.19571436604099457,2.9905611917549053,1.0778567695514294,-1.296612265135659
2019-08-03 01:33:29.703304,-0.5824006870889339,0.11597128863015185,0.43651205177820773,-146.7227310624802,45.2752094099034,-133.06239803337814,0.052177766887906304,0.9975162977700532,-0.18369781791884113,2.4016472358857692,-1.0562336464872801,0.45113546092664963,-0.9230538524596534,-0.17571592099623148,0.3964691334608522,-6.340406863743985,0.7774504135113879,-1.1169506854507725,-0.6466246473789773,-0.06289055191036463,0.21680592025097215,115.13841135903962,77.88003013256107,203.8426930483057,-0.14542267680195767,-0.9818018464471502,-0.1967893094058207,3.013626983711572,1.2594726250529513,-1.2108779327210049
2019-08-03 01:33:29.713304,-0.5670632765257915,0.11113996281023084,0.4294988126683106,-142.12472913620184,53.118199158015486,-139.17278494268749,0.05336617003065271,0.9980375833038566,-0.1864413831896444,2.2777558454653044,-0.5845085490348224,0.27406248360905433,-0.9097324407424157,-0.1460782462241291,0.3810882194062387,0.05973414061024998,0.4133607537422323,-1.1336008274290503,-0.609986098175773,-0.012069965329324122,0.21542592572611435,105.27511112779355,78.31011525288243,209.36292422702587,-0.1483854928196165,-0.9773801476671282,-0.19717333511583,3.0435318453038014,1.4204150830098765,-1.1493172066188997
2019-08-03 01:33:29.723304,-0.5274047227990322,0.07794492679277747,0.42346765142064435,-138.89406133115642,62.643822425712564,-149.08448625294068,0.05008432011333411,0.9968437830246736,-0.18849437850161718,2.186214293008663,-0.27200876355902,0.15380238898882098,-0.9141110243363884,-0.12697598666981638,0.3954863069353174,3.9163893947947597,-0.3420478874825339,0.011033163378056265,-0.6935870693013682,-0.026184379797294,0.2592826617859055,122.46806138111948,82.83210105343723,202.8269999825862,-0.15016740611520735,-0.9754431278755493,-0.1969963298010837,3.03203471296389,1.4975351167921394,-1.1077500146680066
2019-08-03 01:33:29.733304,-0.48924744703768086,-0.025519362285694264,0.40488812319981454,-137.8956588639248,70.30072662807864,-158.8187757561885,0.04598832957689931,0.9953460171900484,-0.1888959304132585,2.1136324438038634,-0.0889136635888906,-0.002092334271218882,-0.9341246465815735,-0.11592424064603427,0.425055968213095,3.284402413618403,0.30012207655821743,3.312464517112004,-0.5050138192393647,0.11406614952913798,0.22403981738832418,81.94453671924992,76.7607047508714,221.06882000670282,-0.1496218333978984,-0.9782464946258407,-0.1958428931940145,2.9594603995115025,1.4116426863585545,-1.1041656381840346
2019-08-03 01:33:29.743304,-0.4739998121678946,-0.11704918467618344,0.39257309357315345,-135.17162941189633,77.87410583638388,-166.7220459379042,0.04976378135015853,0.9907512739380718,-0.18386937529017489,1.7405078458359242,-0.9377147466545336,0.6649846148500019,-0.9227314648302044,-0.11859202309504542,0.3891714177811857,-0.7853577756279849,0.9253070814278644,1.3543534292148882,-0.47896725513188937,0.12667178659832842,0.17038820289425063,79.18960455200256,68.14232619146456,218.48222964806504,-0.14547006273506494,-0.9880514809010281,-0.1934082128665354,2.8012563611908305,1.0913933106897993,-1.1493670840213435
2019-08-03 01:33:29.753304,-0.46911680146954127,-0.15948110050289696,0.36787783332891894,-132.609353463066,81.12737262982256,-169.5807702140103,0.05185442705290667,0.9908324466031642,-0.184990810777077,1.6755357147709664,-1.3061522855836303,0.8977314481994689,-0.9256832836131519,-0.1380475345918165,0.4136763035213241,-1.6036699954185543,-0.10622586207075302,0.9353620253121442,-0.4292478477186658,0.152757688060223,0.15917545273497138,74.90140924486464,64.2098245407153,220.14281461354497,-0.1371544026210277,-0.9980685474297727,-0.18894755054058796,2.6899484674960012,0.6970302888475386,-1.1609098509296432
2019-08-03 01:33:29.763304,-0.4532978011691065,-0.1892808606501519,0.3373654697742414,-127.66070929995577,84.42528461104646,-172.67595806946528,0.051077407243949075,0.9941580163626667,-0.19170041522997433,1.9167513760061252,-0.9969916237067579,0.5322230536659691,-0.9085585614077751,-0.13619075694289878,0.42970747446702734,-2.8426915059543085,-0.7172259933949936,0.48495348854240095,-0.4910557129705869,0.21284090175872292,0.12826830646576337,60.21218420292402,49.90553401338796,218.0100100150561,-0.1313472541827164,-0.989983947649838,-0.19018817234182947,2.6523210170999163,0.7013472380375554,-0.8839871188591298
2019-08-03 01:33:29.773304,-0.42598619760851514,-0.21971029852473295,0.30654330724046036,-120.4766660448782,89.38268746065407,-177.57289220168823,0.051718352593853885,0.994887772701513,-0.1974766748189038,2.1330587243466157,-0.5808909767860055,0.06393902987341768,-0.8897700420016026,-0.13767062664063312,0.42861867425238037,-3.692685365940605,-6.071980864561602,-0.15207979717045947,-0.43817558547537433,0.2700191489594654,0.15427809449914753,52.062957998745546,42.68984148885341,219.11427904158825,-0.13438463609414253,-0.9817774746178359,-0.19309327991956257,2.4350226405198825,1.035896056702725,-0.7468510035624665
2019-08-03 01:33:29.783304,-0.41271083533287595,-0.22903664631177587,0.2951484301383735,-117.27318694966146,91.26276552367199,-179.56922250992682,0.056937831704915294,0.9901929896996813,-0.19768598811213678,2.1231019455830555,-0.5177077985413739,-0.15100528819595224,-0.9118821436535562,-0.13070787410271406,0.41730100266122344,0.8167374652067605,-1.0458500928424028,0.41948629552612215,-0.5499175705266924,0.2542322651542836,0.12822617701104078,57.678250693446664,46.817744589899505,218.721272253198,-0.13775287438819572,-0.9803815546223695,-0.19464098835459598,2.398984811949617,1.1657687965319568,-0.7080667254960624
2019-08-03 01:33:29.793304,-0.40801947849704767,-0.22458050673299307,0.2960733563458996,-116.6633680074062,91.06203596169534,-179.62124547990115,0.050049432478544716,0.9840941733051674,-0.18809770384615151,1.8972202280284196,-0.2542254917399638,-0.21644503851520408,-0.9199017948654835,-0.11338441282038993,0.42051440609607477,2.9664580770390856,2.4141658322052773,1.0409425596420703,-0.21260130957259027,0.29621011165741074,0.2313419577869352,34.69897061780687,26.66129312843399,223.4819167690916,-0.1401093860763414,-0.983243093103141,-0.19526516365902435,2.4778095430382736,1.1732332070476224,-0.6809423821543649
2019-08-03 01:33:29.803304,-0.405738189976457,-0.21550222713353606,0.3026363735130397,-117.10957142318004,90.01435293609113,-178.90999850485733,0.05727543318864237,0.9957401505712682,-0.1874645815763762,2.403307849703963,-0.6963562673112109,-0.6362764327764369,-0.9264685080897018,-0.09784572809716346,0.42028528760114403,3.626304142769574,-0.28605134406190863,0.9420239966379852,-0.23814677235607187,0.3014264743989681,0.20672649915260632,37.58943624514585,28.911734290756204,221.857761383414,-0.14153035657098267,-0.9869062345534112,-0.19542416791463,2.536958480435416,1.2385672254782962,-0.6112285967534518
2019-08-03 01:33:29.813304,-0.3990842398134563,-0.2069906163963838,0.3039278227127404,-116.88182879064895,89.02000160788158,-178.35298188283053,0.06182858605993347,1.001301733509575,-0.19057815255234373,2.765502824837027,-0.9478772388858417,-1.0332362450730597,-0.9277727069536568,-0.09518789592371475,0.4110280635333965,4.14166466485209,1.5358772383652926,2.2112991530739543,-0.17636309009497578,0.31565083790668885,0.2307462214505662,35.463051963001845,26.553784163552113,220.76420551822739,-0.14297694487849003,-0.9876866384426953,-0.19516618852849235,2.412803436304673,1.6395330121638623,-0.3978799185489396
2019-08-03 01:33:29.823304,-0.38472007172561584,-0.209753826213448,0.2985205809027978,-114.70885046096626,89.11579629139986,-178.98072249007382,0.05623138579265598,0.9955078012294405,-0.19209969002876778,2.695401451953351,-0.7050638264000881,-1.2533401260175239,-0.9217739304657099,-0.10317320444332644,0.4037430560656656,-0.1684541267635516,0.6727520036482598,3.3095674393216123,-0.12639685884580693,0.33247900959678517,0.26169626984501215,32.32148645613026,25.114557649194396,219.7940019524766,-0.14067815878169032,-0.9867068002756143,-0.19468109884911533,2.288074468228463,1.744475839682931,-0.35173663302886493
2019-08-03 01:33:29.833304,-0.3704501509745165,-0.2406293401777345,0.3057086372889107,-110.34202494665301,90.60385770502725,-181.24734559891914,0.05046370135089304,0.9881075933950081,-0.19433930929718035,2.532815978592363,-0.4043621329642276,-1.4099750533044269,-0.9215509076486389,-0.10631172424988307,0.41225653922558836,-1.5089757736160958,0.66277178610754,3.6611695136650257,-0.12591661045002864,0.34079873909909986,0.2768323450162536,31.055469954427533,25.36069440383348,218.99566141192713,-0.13728585390966516,-0.9853960078698933,-0.19009925199908903,2.2398552149804862,1.415980930856614,-0.5315538535439716
2019-08-03 01:33:29.843304,-0.36557581165129366,-0.31063459308939817,0.34182187489012433,-103.49019518592816,92.91808368008071,-184.96247319042394,0.0490010077464275,0.9860586890696494,-0.19744342210315158,2.476232484701035,-0.2812675747382587,-1.5681343147765863,-0.927143166597631,-0.12870848126530396,0.4196489264441284,-1.9818310840058988,0.962061207764843,3.496725511299627,-0.12199308836317084,0.3530440710368091,0.2827821123282971,29.961455045128467,25.281801716769422,218.56536605092344,-0.13890630711193552,-0.9903323838660326,-0.18603243586544319,2.2549329209410423,1.148825936887893,-0.7421054007100596
2019-08-03 01:33:29.853304,-0.3697351734181938,-0.3871782710153689,0.3716818865084778,-92.69026232016351,90.8952660302195,-186.94491885389326,0.045869205360453566,0.9913285472407544,-0.1979492569050844,2.4678921082506657,-0.20299120258737366,-1.7151580415492353,-0.9276679702575994,-0.13047125085500205,0.42650584578738027,-1.841906631088138,2.1033937131369025,3.6900361059581686,-0.08504005770033615,0.3967916794813027,0.2745352552929006,29.36592351656654,27.500248521407183,217.35952409394542,-0.1413038924322181,-0.9966018143040808,-0.19383106541113193,2.2986352519555893,1.0634262262717096,-0.75988141114983
2019-08-03 01:33:29.863304,-0.374393515838758,-0.44052987321502773,0.38358404539383806,-85.9015130267932,86.35511533143121,-187.22439993325438,0.04629390194329261,0.9987951373315227,-0.1933795580558864,2.4856816243375404,-0.14194184651351582,-1.7322100650875558,-0.9111481608983825,-0.19202004292270486,0.42711730910458945,-11.33960241349016,0.29720776550702666,1.6875187529012254,-0.036205497180838445,0.4676165862908706,0.2675995703174554,29.04754172009405,31.505204969846666,215.54902874936406,-0.14177356143451297,-0.9971453374753595,-0.20244885438080393,2.2798241057034367,1.054845230341175,-0.6296373496791615
2019-08-03 01:33:29.873304,-0.37918048508186347,-0.4516197469526149,0.38933888144396994,-85.05671497169556,85.67335585342128,-187.24557740068846,0.049592466093871294,1.0034913301616581,-0.18805438634849475,2.5012046121178435,-0.12084359807381129,-1.6632412538855519,-0.9144567770908869,-0.19169625147196892,0.4214591703174755,-11.47857672578538,-0.2649013103532709,1.510271640128519,-0.027806873772851175,0.5041875350153078,0.26940637522794286,28.82321395628703,33.43588166751739,214.35375192468823,-0.14138813458477564,-0.9991371678235177,-0.2068615077371983,2.295260858970845,0.9955716507073554,-0.5800573172632176
2019-08-03 01:33:29.883304,-0.38136670595712097,-0.44231118434575833,0.38651779338662695,-85.5874116772181,85.10430437596354,-187.0710581223748,0.049397019242110575,1.005135658464241,-0.18687606045630356,2.487200186953656,-0.13230581070749037,-1.6361790024486442,-0.9363642915854186,-0.09195422432497535,0.4138937820414071,0.6366583917553695,3.7431563508705272,5.332909132500249,-0.023110584778895004,0.5251567066574527,0.2638162491579332,28.049103496930787,35.545615412235165,211.84808085746852,-0.14051169483462486,-1.0016379604121515,-0.207678617557695,2.3291053233158583,0.9199828770348676,-0.5838131621948643
2019-08-03 01:33:29.893304,-0.37816318943867183,-0.4353458026652106,0.37224247915126774,-82.75616541906771,80.64704570195705,-186.72030568724912,0.04631556322970162,1.004853188392608,-0.1889131700290144,2.457229732122377,-0.12462892292969145,-1.655854512114613,-0.9260784826418936,-0.10409862441451488,0.41359970703470794,-0.3836059797643433,3.0875445881969372,5.764741856773405,-0.01968377061016765,0.559199879315653,0.262062496262729,26.340505272468775,36.679650671296635,206.71997933543267,-0.13919165571984277,-1.0034463191720064,-0.2057060520717355,2.3782549054269952,0.9440209229995299,-0.6030264866543529
2019-08-03 01:33:29.903304,-0.35602497734210753,-0.4435342919358629,0.3386121857910288,-74.63299337947701,70.24498483347799,-186.22267999711707,0.04331269535980082,1.00321981289519,-0.19112261803227393,2.38964209230301,-0.1182954416788781,-1.5915157721793518,-0.930477042185959,-0.11781988170380213,0.40448600158658493,-2.125013666537982,1.1078409805838905,5.929926720932042,-0.03070520886196002,0.5636789710076996,0.2722855906806157,25.55849700486976,35.31684507014745,202.97178613986767,-0.13843822485429694,-1.0041080977911376,-0.20178174073098223,2.40120528026712,0.9480206551984932,-0.6214030663574335
2019-08-03 01:33:29.913304,-0.2921646104243973,-0.44606232760556813,0.28907835021290407,-66.69404185763854,58.45947629189819,-185.51617494519422,0.0411723102414995,1.0013006466473044,-0.19263098515371047,2.303959939108835,-0.07431724497870192,-1.458693339111277,-0.9440591524801305,-0.1384034659391984,0.4362796998901487,-4.551154507180901,1.4525351109088913,5.931036842924429,0.03780084676013559,0.5786267770155968,0.28876810502119027,24.47545540681112,31.137718676595902,199.0800071161515,-0.138425225836374,-1.0025200103681378,-0.19671576124351836,2.3898118985945587,1.016990043476013,-0.6038983978652958
2019-08-03 01:33:29.923304,-0.2240474911608037,-0.44241743727418203,0.2832174303123185,-58.671417013443495,50.570108299382674,-185.0393757698573,0.039133149046251876,0.9996280052172122,-0.19460193254411925,2.235812489165752,0.04017647156693824,-1.3651567359902461,-0.94193588935426,-0.13233382922344075,0.4432737596837473,-1.3650852347217775,2.198763733707944,6.471436810051899,0.14308898891243407,0.6235576660340452,0.3122387615691107,22.71454114050607,24.744141976274665,192.78328047312579,-0.1395676681923941,-0.9977952300131121,-0.19133328168807165,2.3246905102963114,1.1720141115743845,-0.5216846689000906
2019-08-03 01:33:29.933304,-0.1916991436806707,-0.4451571689061925,0.29072765980630416,-54.57085490970811,48.05140778516295,-185.09246763303398,0.03567664363565979,0.998886035902994,-0.19887973192196387,2.2347606974731336,0.2874166621658109,-1.4668983885791724,-0.9285648908113483,-0.12010420912859117,0.43098755973914893,2.3668883326098458,1.2263479720200328,6.736635378154856,0.16034996868959486,0.6619605190401328,0.3268373176356607,22.446030786130393,22.366622140221782,191.036514431086,-0.13894933634211837,-0.9886701887325401,-0.18664651297781806,2.2827239395815564,2.024636318618873,-0.32602371586855533
2019-08-03 01:33:29.943304,-0.17197534378603466,-0.4846651776877016,0.3104164655427372,-51.610753499865,47.02693781880924,-185.66183384408677,0.03208610803853954,0.9986707975471274,-0.20459801789368262,2.274913395109951,0.5714935347550626,-1.6906570517848638,-0.9343761822528063,-0.0628500070777917,0.4247746468068346,6.448515845117615,1.0934035442124035,8.015242281648128,0.1753495742951093,0.7074622657893821,0.3305509255826379,22.136613370134068,20.636496538083588,192.2375616333903,-0.1390353567764789,-0.9830454807825377,-0.18459022561788668,2.003766649469801,2.305424475803599,-0.2154470872364839
2019-08-03 01:33:29.953304,-0.1552414165781264,-0.5668355574114106,0.34577463946148895,-46.61940611391911,43.473302856782176,-185.9012103547268,0.032101824659699185,0.9975887135526408,-0.20824127647972424,2.2576198440054758,0.647376276529903,-1.7371913262580045,-0.9394385493533,-0.05653943776737924,0.42706325145051544,6.634300709408435,2.2185907212655684,8.751580961080979,0.11288756062768632,0.6384469846517686,0.3607698065552669,23.903338031955453,16.227593310329084,168.12282761840405,-0.1414044582876175,-0.980995252478686,-0.185425206777098,1.7324943000030073,2.1114238947607085,-0.16866447101368967
2019-08-03 01:33:29.963304,-0.15839143387005677,-0.6072906615926816,0.35564163534458665,-43.994110776976605,40.88754284059373,-185.63594165219664,0.04301012744480455,0.9928911370195241,-0.2031997460332119,1.980117564108377,0.06822136063977868,-1.0343844722284015,-0.9358451951870471,-0.11117743416772437,0.4143311057844,-3.285204861325091,2.2147331645039583,8.911814151384487,0.12687077231619737,0.617686716079903,0.3641724003404933,23.338510643384147,16.523461461238433,170.6306938591264,-0.14415879358365372,-0.9797175445621866,-0.18812721589381554,1.6448369302485821,2.0884463775512505,-0.11302876330757593
2019-08-03 01:33:29.973304,-0.1432077784022498,-0.6199148800574602,0.35608609258637697,-40.31649322918316,34.93910596807192,-184.2731994867256,0.05848784328095246,0.9870781764435657,-0.19435481796926385,1.6252550286288319,-0.8088245597218794,-0.042791569347297755,-0.9284895211977646,-0.1550076123457255,0.38838400755062313,-13.786839485691573,1.6676430135188467,9.279441169470042,0.18521663961899304,0.5806219524259348,0.3662981430298043,22.47604203847132,15.619355345557464,166.82106963846658,-0.14679202989394896,-0.97912500702874,-0.1916919895377346,1.6848107101642869,2.1735153043233373,-0.06330102595537726
2019-08-03 01:33:29.983304,-0.1100137003588712,-0.6254697777820863,0.36056437777739375,-36.48614647530083,27.93911269088258,-182.57975757517357,0.0658022153426483,0.9850770497538496,-0.19168899504283266,1.5291220857757513,-1.211578897203152,0.30574008170390293,-0.9204302932030168,-0.16919724557812132,0.3709361217549377,-17.265218245719367,1.4199215111535715,9.500578890804,0.31818298202428524,0.6436814350519159,0.3534166131892458,23.352697691651876,15.505191158837045,161.95015274650643,-0.14879017633150735,-0.9791233365647334,-0.19511479528037717,1.7967880143453157,2.305662346841296,-0.03404381140632011
2019-08-03 01:33:29.993304,-0.08164630952164742,-0.6157880105924838,0.36795804139483346,-33.75117800278468,23.490579731743594,-180.9967478936154,0.06643703552315917,0.986030035763779,-0.19290806206033706,1.5891658344020139,-1.2001626569231767,0.19360013417090655,-0.9230636495486283,-0.15546447280319006,0.38190455440814935,-13.49641441366332,0.8404135627258543,9.066760890920893,0.30581032940591946,0.6851164469640382,0.3499616165082712,25.97731380722386,15.865319639543806,154.85928579330607,-0.149639242009333,-0.9796182298565552,-0.19739090069326537,1.925141217386864,2.4239191768694557,-0.03981967210963083
2019-08-03 01:33:30.003304,-0.03881970061659412,-0.616381434159902,0.3725057023792569,-28.55902797102649,16.776837238979066,-176.8777031009674,0.06235169530014259,0.9888947431473836,-0.19535023002700458,1.6884442560571362,-0.8617141653619099,-0.16292522820249009,-0.9421339210311553,-0.12107512648646776,0.42898410284442134,-3.616197413769072,-0.43631382387119416,7.717868648070189,0.28636740546482353,0.7540934042080194,0.3992619810785763,22.52638558124296,19.856884241765318,158.71024490309316,-0.1488252360404301,-0.9805153835905931,-0.19751557334792133,2.0142426938841265,2.467317466172144,-0.09519116051453577
2019-08-03 01:33:30.013304,0.03482695519492571,-0.6583488585150992,0.3654634871945907,-25.852244100192223,14.31456339021815,-171.50792125542742,0.055567600308414004,0.9926069051066636,-0.19631550990657312,1.7089985285090665,-0.2872887938694055,-0.5430806128001278,-0.9373269699622511,-0.10303718384035959,0.4174245503008989,0.717252957892384,-0.5878592086697986,7.08530725919729,0.23862631781919724,0.6018148150837409,0.23498809378440433,33.15251717047158,12.026498840484663,137.27208637124502,-0.14596171173270286,-0.9821715606614889,-0.19467408285687698,2.01025881233295,2.37414571244652,-0.20619077558162768
2019-08-03 01:33:30.023304,0.07863787203000495,-0.7195590503598904,0.33627099170648256,-25.036305303534927,14.91726660462217,-165.79895368170085,0.048559283743008295,0.9961386592062599,-0.19471930153847425,1.5989277142357041,0.37556252567555676,-0.7747178762725224,-0.9342469394402025,-0.0875631614071453,0.41570853093125865,1.58175383720094,-0.3160170822191135,6.455576025612193,0.25381016337808426,0.6300608080199305,0.2877608588167292,29.52938658479593,13.039849749422693,143.10228681199953,-0.14033077651794523,-0.9830173447148195,-0.18747374060758895,1.855516452600118,2.087912117551985,-0.4131038191603341
2019-08-03 01:33:30.033304,0.0781362269354793,-0.7453845183923197,0.3250271752765975,-24.54555238694564,15.400369211068833,-162.72706323681513,0.046247143452863224,0.9986294883291803,-0.19694824425926888,1.6135606261334987,0.7041088526535859,-0.8955758335548984,-0.9346320581619609,-0.09250393505730721,0.42416750219996574,-0.8979832451345695,-0.07396720617331354,6.342447646132939,0.2342196015912177,0.5965548673761238,0.30338548087233247,28.094015593598517,9.375886608944546,142.32742645400592,-0.1386640448529974,-0.9897312645587466,-0.1835982781942126,1.6168668087460263,1.5876470480672367,-0.5480854856896114
2019-08-03 01:33:30.043304,0.05252852639942266,-0.7227222476642247,0.3131111551722943,-21.42019344962661,15.691835113666032,-157.31506616133302,0.04627344229083468,0.9993436220796401,-0.20136524155262275,1.6426491614439704,0.7967128209580535,-0.9288816913861676,-0.931115748409466,-0.11272688909231472,0.4288816297815554,-3.369566482690427,0.747810631418947,6.077691711684818,0.23429302439162517,0.5886623581644295,0.3016830078125099,27.526678296886825,7.0015740815823415,142.400224861204,-0.14187025919956467,-0.9869689200642977,-0.18350677852025718,1.4717329292432113,1.1667935062817607,-0.7503781424016739
2019-08-03 01:33:30.053304,0.045925175652550915,-0.6648504758050571,0.3012961768801126,-17.065871499283556,14.772179056693489,-153.10745202655886,0.0432140790394117,0.9963389309504596,-0.20410138884672624,1.5244394383254356,0.762203900827313,-0.8841616949095054,-0.928320334748288,-0.09765105883539926,0.4361685310567551,-0.18314585097758895,1.6614144004768292,4.7905302024870196,0.2380795613899087,0.5964204791282051,0.3043845903947843,27.225332416285195,6.6143651459259605,143.3510486837389,-0.14332748832303124,-0.9827187677963457,-0.18546593755889962,1.8274281122564162,1.5086750759770284,-0.6554553873915716
2019-08-03 01:33:30.063304,0.08246590605221696,-0.6414889527437198,0.3179587924194228,-13.831513663946383,12.633117210259783,-149.376604641518,0.03782631559165079,0.990984631980127,-0.203800471675361,1.1878095718925166,0.7336873202218005,-0.7733787629328105,-0.9236368068648785,-0.1029234661345258,0.43319204563927316,3.7018629289738447,1.2438683465514349,3.911141550257367,0.2324324009139446,0.5914759747873827,0.3133264225155822,27.447842960716024,5.906916638685914,143.37247600353604,-0.14281918081756884,-0.9798534561920323,-0.18828009075606056,2.465875133569644,2.3170313728061345,-0.34811213085097864
2019-08-03 01:33:30.073304,0.17361968795233793,-0.7027796198245856,0.334908938554271,-14.596354107560296,11.506358467202793,-148.2093177884094,0.045785183838213325,0.9919231968572334,-0.20436240213454016,0.945198164596937,0.6147845431515211,-0.5814194068330414,-0.9199900555156337,-0.10411611216071343,0.4221926705272946,3.1882589934479495,0.6108682530328139,3.8393960182269016,0.26944955243675145,0.5963435966079925,0.3199096831783301,27.10551950226813,-0.9202290417287432,146.2743673922396,-0.14092080090547304,-0.97842920681294,-0.19084523411372256,3.1487054719657794,3.2315971996351096,0.014191167406312849
2019-08-03 01:33:30.083304,0.1902121867812316,-0.7554992450906128,0.3384483828540269,-15.783609333139207,11.591883629983469,-146.88971512312054,0.05409522337286497,0.9924839865466409,-0.19967586040237661,1.185446849167209,-0.3848122793735571,-0.32510675746745665,-0.9203014471058848,-0.08663013205211115,0.40747858486005506,4.333127816273708,0.796752781744941,3.7804969702798283,0.16050801719323043,0.5364444867569631,0.35532028183334,26.033135089360893,-1.2941994051559647,141.7745123242284,-0.13946285633593716,-0.9796163518048695,-0.19162391078318153,3.360485735514002,3.560764031681422,0.17395188654855082
2019-08-03 01:33:30.093304,0.19175822397083153,-0.784980454027063,0.33846662656181886,-17.960001643656415,12.283541148477306,-146.92612750494882,0.05626943325861853,0.9930929811878065,-0.1957152704783817,1.6254707214818194,-1.6939805565899737,0.025899581611012315,-0.9246824627357846,-0.08232211176987245,0.40137601413048374,5.4700564144243575,0.8012709658975928,4.034446131027776,0.47841771953055484,0.6648336346402314,0.2762482887965017,26.89216707249025,-12.4493837589775,154.72504425536025,-0.13924414537029894,-0.9836693678587118,-0.18943498416200943,2.8135439204270356,2.885304379199346,-0.04409285954105391
2019-08-03 01:33:30.103304,0.19878930563142155,-0.7777163805746488,0.3364767157479194,-17.86223261034144,12.53455890340765,-146.81551430343396,0.054484847939359086,0.9941719920350078,-0.19389198909562969,2.0625940504611355,-2.8777016276092784,0.38088010536737343,-0.9275386417910475,-0.08800634161252835,0.4067703511964078,2.111044424378627,0.7315079943431522,4.754631874872153,0.48527741864342405,0.6641713230472043,0.2617002593064303,26.69498519930712,-11.83800475483638,155.68972629937636,-0.14132624257956938,-0.9910739287595044,-0.1830141530509644,1.1622896126215017,0.7174392498482047,-0.8355414213739492
2019-08-03 01:33:30.113304,0.19797743403252757,-0.6976710013156504,0.3215873795847412,-10.3483218580606,10.930234241447398,-143.618167505405,0.050922091643909054,0.9947613412219886,-0.1943175180326902,2.2006205804376306,-3.295751031561874,0.534675647216241,-0.9332856677901393,-0.096276794432795,0.4192334560408833,-1.6921053947962166,1.0379958334192962,5.232786885105725,0.40465548079718694,0.6056577360429555,0.27109595713153917,25.951190476198832,-6.21896143223619,151.68874900391606,-0.138110744560145,-0.9913052292661761,-0.18563138847736765,0.32670142336366265,0.3949567051814027,-0.6852164045206448
2019-08-03 01:33:30.123304,0.1932263309966054,-0.6672345872550983,0.312644643955271,-7.268321904209388,9.826271315531024,-142.3190868603755,0.04828607742858264,0.9945689384677885,-0.19721228743381947,1.8257617388339886,-2.4843739653198953,0.34314631651079974,-0.9311713776532131,-0.10097066575782915,0.43291396883409244,-2.517407193724171,1.2997388537503825,5.420477231134689,0.48522093891207785,0.6011245641298434,0.26236589061977666,24.432967857175107,-2.14735597068426,154.27982109053204,-0.1372426471655152,-0.9924010960410663,-0.1827582206722921,-0.2150635599718459,0.2749741257720748,-0.637554249192594
2019-08-03 01:33:30.133304,0.18877852305926127,-0.6688250813354157,0.3154808584450901,-8.243526611523137,9.305381225946173,-142.84543878129762,0.04913408136816802,0.993123504291021,-0.20276395912770817,0.7029917222833587,0.0657155968477922,-0.35370862732832087,-0.9281673822197192,-0.11158259804613026,0.43802362504391074,-2.0351978544722638,1.5934394268366305,5.56023277123298,0.45441973698288946,0.5893039670581165,0.28255613555590253,22.054777769293487,6.123728058645343,154.53635039792087,-0.13697675591338826,-0.9947782018887292,-0.18032000118362737,-0.46490339962034705,0.11322565722666234,-0.5475342252286612
2019-08-03 01:33:30.143304,0.18458113973874524,-0.6208000412762258,0.32577330282405653,-5.942048194821264,8.151202609614527,-142.12915887705094,0.04889811497080065,0.9916613711904653,-0.20567491963827084,0.02204499367334794,1.4485233755371787,-0.7474273250232533,-0.9346554467381258,-0.11844871099983151,0.42330913183390345,-0.646577180012453,1.8626900069057306,5.357710719545461,0.3966891593628106,0.5786597006857745,0.30455115355217993,20.957842424367776,9.989743197919188,153.5818820473421,-0.13663733119551838,-0.994363005092011,-0.18075989787274405,-0.6796552333958955,0.015155213710185802,-0.4678098821396556
2019-08-03 01:33:30.153304,0.18517272185779246,-0.5672682468894458,0.28730753683036137,-3.50905210559846,5.811016651785661,-138.48255160118032,0.04329114033872826,0.991361174755251,-0.20484634252335054,0.3970300020044338,0.7144263536196751,-0.5159905761263537,-0.9362463540424046,-0.112786336917165,0.41191953514720275,1.009426894606467,1.7104491042221568,4.89665388580987,0.3778201557983973,0.5681169244800517,0.31447631589445113,20.697720682668248,11.083494928827719,153.27151145165263,-0.13523051968778138,-0.991766705101652,-0.1806992123548557,-0.7644567453012008,0.02051469057277283,-0.4684172511993768
2019-08-03 01:33:30.163304,0.18594620067366505,-0.6694650045199894,0.37731254689418536,-6.196394259843999,10.69598748710124,-145.1311156708676,0.03802811332154373,0.9911878733117931,-0.20536091810724572,0.6047946619631765,0.8646996646203124,-0.49286857103432585,-0.9397094832258032,-0.0793834873726697,0.39717342609390177,5.336832283633824,1.1694148710218413,3.8931801367507037,0.3963279169619863,0.5554519843104043,0.31197780939027686,20.9996993247885,8.782663273162335,153.61268640738336,-0.1322059884510932,-0.988558251813065,-0.17766299281234094,-0.7080308100586147,0.12196435378917762,-0.5381451007922916
2019-08-03 01:33:30.173304,0.18715826659596307,-0.6915355148546746,0.3860025485598061,-6.684286952858204,11.696972913150876,-146.65803768717555,0.0399295135150179,0.9914076015988746,-0.204800874847904,0.40114899033935564,1.0811599820741367,-0.5094944907678783,-0.9423041479126099,-0.056805890660284526,0.3974486188288017,7.359525940836893,-0.17250110390256274,3.2951029479979126,0.45905462340320763,0.5310233879760294,0.30617459106843914,21.539395671505858,1.227711124699263,154.0884166556465,-0.12810016108490133,-0.9860107963033848,-0.171545068304903,-0.561455544969965,0.27401581134921565,-0.6383255097236341
2019-08-03 01:33:30.183304,0.24309235889895406,-0.6509080737428901,0.35516730995201035,-5.658950207769179,10.462505354383696,-146.27392524793274,0.053391709422690635,0.9919194533524341,-0.20127639183778487,-0.3889784272262858,0.7267448316528726,-0.4572249696148027,-0.9339355317029496,-0.05015491699965738,0.3979923091337095,15.084151273914172,-4.466427267690669,3.5787342727443194,0.622752470777225,0.5548854562085751,0.290775356526641,22.2455577070334,-9.995465962703356,152.54217608684783,-0.12567512399536931,-0.9847749299529736,-0.16707084152273982,-0.500728025896414,0.3536871191192509,-0.6763526384158685
2019-08-03 01:33:30.193304,0.2969485305206504,-0.6535712509958291,0.37477945867717105,-5.5836329974413434,11.385135725618504,-148.82648736285066,0.05043188154449534,0.9895387289861428,-0.20018983139840837,-0.7317871300217654,1.3285466691023853,-0.8172118650350161,-0.9262731597477577,-0.04577412572776961,0.39015742430734646,24.553394225781396,-8.1307383298417,3.6449827188263866,0.7180494608455057,0.6082731334735579,0.2784959840017554,22.635563367618364,-19.821284045781542,150.18914225290436,-0.12836932624822814,-0.98477669257987,-0.16919491009562804,-0.6026327618186642,0.3463495233647155,-0.6314183317250017
2019-08-03 01:33:30.203304,0.3041990303264881,-0.638400145828964,0.3691312584558435,-4.303378940460869,10.866534694685111,-149.5292693301488,0.043311113021935875,0.9881905928211582,-0.20012559275927014,-0.7001741367982474,2.0243139148678218,-1.1085049260485926,-0.9467000609600866,-0.06639875094064776,0.40639417999213434,9.728669334520271,-3.314793822097042,3.499814499858517,0.7466731203924168,0.6236577410264612,0.2596700587760188,22.622773801642623,-24.03913310384756,147.59827780097763,-0.13749316299126027,-0.9892703350573403,-0.18505668798003924,-1.5560552166408035,-0.34138585628729146,-0.05526410225586585
2019-08-03 01:33:30.213304,0.3569331343545126,-0.5967596062491678,0.34695998751489854,-2.217695181903622,9.594630216199427,-151.21554909122477,0.04208905538637074,0.9891889779780966,-0.19953055542092746,-0.6479392179068657,2.204338674475547,-1.1375049036523142,-0.936568323627976,-0.10779980029116895,0.44318679311787956,-0.35673345902503695,2.174848568125584,1.495398992277171,0.7706691498845247,0.6098425131006587,0.23537964128434383,22.148500073448474,-27.826499711973153,140.7365202156538,-0.14699950783181445,-0.987278996936142,-0.1928205426579373,-1.2560162268460011,0.05596196555312194,-0.344824254019464
2019-08-03 01:33:30.223304,0.4265416225921747,-0.5839040154394073,0.3327764688362681,-1.1825602335852738,9.244967337959086,-152.03074063369544,0.04430671834470026,0.9914361492566216,-0.19885398621695288,-0.6162226284670336,2.069298279062818,-1.0307116994007202,-0.9581185315988819,-0.0840393678796316,0.4098541348694412,-0.07776775749926058,1.3579232279546214,2.614653631446253,0.7680229317129663,0.5556115054084236,0.2392371066716397,20.11114129650801,-25.50658006926522,135.95354457221814,-0.12721849876981658,-0.9965664898396843,-0.18320020053835784,-2.8189075368926066,-1.7140324296526595,0.7953479008491025
2019-08-03 01:33:30.233304,0.45420450788863453,-0.5880704842582153,0.32715444670947685,-1.5185655209099425,9.27041046472077,-152.4184999620392,0.046303063235185626,0.9935010685315212,-0.19947972653004992,-0.6585005762022997,1.838778582204648,-0.9908500050263086,-0.954374976099237,-0.08631751719473806,0.39653376899692544,2.0893931762386306,1.3898446389812542,2.625744468613055,0.8636366860656138,0.5712607395223085,0.23566909560949809,19.192365633976678,-21.249243304319144,132.613492351046,-0.12311280922456128,-0.9986356543747338,-0.18295589011087546,-3.17198903522519,-2.062324485591362,1.1494659831033935
2019-08-03 01:33:30.243304,0.4690638030041429,-0.614592642899809,0.3386253150619482,-3.0679657735759474,10.192377031596566,-153.51892192940494,0.04617477084080271,0.9943637503933878,-0.20174984822393507,-0.8337747369397784,1.6819353557413546,-1.1333996332451557,-0.9392064887688686,-0.08100837629539939,0.3698341052080707,2.5038399379286735,3.2234365936912743,2.787388854577288,0.9325343200646831,0.6081425894316642,0.2239939326846734,19.701627839086385,-19.53346099279462,131.34306333566084,-0.13490869546222908,-0.9922410784068347,-0.18891981393020713,-2.231875144497213,-0.9530187847056006,0.6129416070985457
2019-08-03 01:33:30.253304,0.4330869832356206,-0.6306987557050189,0.3876854669246186,-3.351434252788541,12.204486830600517,-154.55213149345124,0.043554401931010865,0.9943411606050844,-0.20328920208964055,-0.9591240639154655,1.758262239570612,-1.2951573303549218,-0.9324241890071221,-0.07622489715633657,0.3654880831507133,2.3608511902922764,3.713332440764193,2.6878884147390627,1.010715539902384,0.6789197509311571,0.20230863037626384,19.881732657769675,-17.988304484274018,125.72217191901943,-0.1406901540143944,-0.9892740033934709,-0.1908519067381517,-2.1392724941348935,-0.7238848928129491,0.6763748071439246
2019-08-03 01:33:30.263304,0.3636273845312635,-0.6150263761663782,0.4134153673003576,-1.4028063903589931,14.691900533025791,-156.02963154309717,0.0407348820466402,0.9940519126849333,-0.20255800310354366,-0.9826234049879307,1.924393969861986,-1.3335937125677964,-0.9627508629772136,-0.08583802682614078,0.41920999109543233,-0.4886113901576955,-1.183563513628112,2.2694938231605217,1.049987680983545,0.7226234703484244,0.19999833217539084,18.503375122934106,-17.832899966140918,114.5219831565788,-0.14146550635913543,-0.9882881810870244,-0.18965537740448596,-2.398000807866511,-0.8054886064819187,0.9208128473520635
2019-08-03 01:33:30.273304,0.3221132961784595,-0.6038471756840281,0.42110449293825397,-0.22676438560829437,16.154174135496028,-156.99566233598352,0.04084596823353093,0.9935606482242603,-0.20008213253992396,-1.072590296425826,1.8422021351000748,-1.276848834330433,-0.9631022837983573,-0.09576069229974188,0.41232990447834933,-1.4018518010171659,0.08966386604029927,2.1448188319800185,1.0304546477924539,0.6959434388771408,0.2141894032976786,15.239117019455374,-20.64049959086703,100.81817687610736,-0.1411071217726221,-0.9873076205727612,-0.18811933077009244,-2.453228299106841,-0.7098522366740215,0.9897833731851309
2019-08-03 01:33:30.283304,0.3120080895629945,-0.598542704283369,0.42212030040599435,0.031052444416772317,16.672463917505144,-157.40979558477744,0.04612275058286351,0.9929339639481203,-0.19666467556945985,-1.3605092914717307,1.259075368486777,-1.1547729050994573,-0.9594191170222004,-0.10319258480165629,0.41488904264846355,-1.283341840584696,-0.859949213608829,1.2345745505764407,1.018289757270293,0.673146262194755,0.21910978783145435,13.472549124626855,-21.659393541705263,94.75729205474047,-0.14121550436884392,-0.9867822857683992,-0.18819773950193244,-2.2956624953567886,-0.6941486120040434,1.0241370587723815
2019-08-03 01:33:30.293304,0.3244755166336114,-0.5958004975444436,0.4180366137183671,-0.3474699662648191,16.33824567914572,-157.30765820110298,0.04924642139834955,0.9922687995911906,-0.19752100575167603,-1.473941674923837,1.0213797328453038,-0.996899831712527,-0.9464841306480635,-0.08283281312295399,0.4081816296490703,1.4764239301549962,-0.9420411572538281,-0.3080395815399739,1.0207027890811387,0.6210379191063908,0.23338281154470666,10.219589203457462,-23.495274622270284,82.513322600413,-0.14229658437199416,-0.9867803287862177,-0.19063074629571472,-2.000753259374489,-0.8861389544817021,1.0144617420516815
2019-08-03 01:33:30.303304,0.35297573269108273,-0.589485665175009,0.4100719029198683,-0.8979970423483846,15.476470540775779,-157.00666876824243,0.045208440630245206,0.9916763070592279,-0.20283832090099904,-1.2842556984978908,1.448078444962864,-0.8404110931144385,-0.9406693564550808,-0.06484260606645181,0.41242942061377197,5.368701533794319,-0.8754269962469731,-1.3213233173021686,1.0701424704817213,0.6017489213120473,0.2275545345682869,7.081382287192033,-23.220435942793987,71.46031656278625,-0.14234054674170657,-0.9868170461913943,-0.19385274636421024,-1.8291740075697192,-1.1869932612498053,0.6746647260003908
2019-08-03 01:33:30.313304,0.3938825864532731,-0.5761217968459225,0.4003274599266838,-1.2555810970171122,14.230534393715125,-156.66569781426222,0.03994739356880057,0.9913389860424768,-0.20557936688430156,-1.1983012560784152,1.6492522047300493,-0.7188281175054563,-0.9342098321908322,-0.06453953032089199,0.41607813075735006,6.2384345827805925,-0.29310753107498266,-2.0194874247394763,1.085719795759354,0.6067441435225469,0.23435563066561443,6.037699029969489,-21.03258922514,66.37950480128812,-0.14273079611835676,-0.986950048812768,-0.18952780758245882,-1.9545467692453946,-1.2698708084717347,0.42899605957331877
2019-08-03 01:33:30.323304,0.4856165785278663,-0.5647743455619264,0.3900282583670102,-1.3043403331570984,12.566783070197518,-156.96220530771956,0.036258106726563516,0.9914110403846985,-0.20596749492188843,-1.19579985000474,1.6663843353784182,-0.6735511513021952,-0.9271051200210656,-0.06295386559060169,0.41678576535717304,2.1096276594141794,0.1987894541782476,-2.4236201877441035,1.0626787190140876,0.6002852770055014,0.17631309059880446,4.773064465101247,-15.793420666897651,56.57098723251406,-0.1453602371039069,-0.9880278693088046,-0.19120328971890893,-1.9703381126521402,-1.373178182092394,0.3714819711682546
2019-08-03 01:33:30.333304,0.6648001717236545,-0.5963293750158326,0.4067431220791486,-2.207438364927965,7.64999424832483,-155.12853972683038,0.03729416400078278,0.9920477694413461,-0.20436477157380356,-1.2606253877746922,1.529811755789611,-0.7452613545147466,-0.9311789490033717,-0.0668860373322583,0.4129663580430626,0.032072306130648175,0.3378440713428067,-2.2031669941248557,0.9289967557699877,0.5666576677037689,0.18444676229135532,4.406358197248172,-14.687751046356935,49.993276555481906,-0.14531735551126956,-0.9887468369531268,-0.1925268510599538,-1.6478185982156925,-1.2551201874633675,0.12765693586103316
2019-08-03 01:33:30.343304,0.8281033795693336,-0.685487312962177,0.47505480077654466,-5.175363409109153,-1.7849636190182983,-147.92920047691015,0.04610414832215591,0.9934035697520359,-0.2011809168376259,-1.371636597248578,1.2813542099679978,-0.9749214016727634,-0.933871465106146,-0.07232381170070337,0.41423320839705985,0.34722110532492945,1.1576319230520864,-2.9057639567984186,0.9312104624657669,0.5407910234140628,0.13571899434624632,7.231641341309077,-29.699384829200042,61.772909694297425,-0.14334811298363834,-0.9900170563693411,-0.19118031015479564,-1.2406301706972531,-1.0104943699102031,-0.18133826216656823
2019-08-03 01:33:30.353304,0.8852515944710766,-0.7239411005372147,0.5015028980747953,-6.679819904878007,-5.134823305273816,-146.5388940981485,0.05396630827693572,0.9946427373642902,-0.1969213287256915,-1.4800207282216122,1.2718785814446805,-1.4911001208118717,-0.9304741815534465,-0.07862738384992679,0.4189783381545894,-1.1448274265999545,0.9845473259061832,-1.7294450618150397,1.143993205810331,0.5164247351950921,0.31228769330623346,4.007429737792616,9.023946657656547,22.369414309435385,-0.1425390978252823,-0.9930351872875011,-0.18915519917547427,-1.0909273917671616,-0.8805800547846522,-0.27586384956223975
2019-08-03 01:33:30.363304,0.8707578849489928,-0.7233506810188085,0.4965830342267549,-6.883477437568655,-4.3706520505523025,-148.4157379759821,0.03829164192450885,0.9933681894892202,-0.19344154906280472,-1.4865150166425027,2.065933611809755,-2.264101021788016,-0.9267835669516888,-0.08866337702986504,0.41836965402366644,-2.1648059715715537,-0.4358793642011272,1.0378376616852458,1.0715167253756868,0.5016448024286517,0.30127725294702207,6.3422355102659855,22.52113087967903,12.171433508162492,-0.14278126211124334,-0.9960099895558426,-0.18808277557105338,-1.1437097990434903,-0.8528179808426937,-0.21148251041348773
2019-08-03 01:33:30.373304,0.8192393147531878,-0.6976593445517665,0.4735304600499691,-6.078472843343295,-1.873597668693118,-150.7306931630745,0.030064176716897123,0.991753727960771,-0.19268019426727037,-1.4300788783629577,2.58907528927785,-2.6276349103941494,-0.9324613909470264,-0.09178453497060449,0.4200589746984317,-1.5262297817819965,-0.2990788936106085,-0.1593462087047837,0.936184041028417,0.5147606963153,0.2863310263899374,9.643768539460524,30.28968619458945,3.452644966611022,-0.14354345841304716,-0.9967087144994748,-0.18993572220889166,-1.2714465883988066,-0.8835129935495819,-0.09991464200871521
2019-08-03 01:33:30.383304,0.7800215468553888,-0.6697202096601469,0.45085424557534926,-4.648185552449222,-0.3603255431174497,-149.74533482370467,0.027839138254743878,0.990546110432144,-0.19358020871202886,-1.3428470470238354,2.8225204950367235,-2.700031949581107,-0.9308820239940011,-0.08310697407709074,0.4223392705566154,-1.0310816046352718,-0.05725809660815049,-0.16195430191625634,0.9233033448149686,0.5108068834458944,0.29209972797031286,10.435909609190725,37.037702721314474,1.6901070166760934,-0.14399793714016476,-0.99367522318159,-0.19510123897072598,-1.3256047050034605,-0.9137524215931697,-0.04872802382493692
2019-08-03 01:33:30.393304,0.7886211125929673,-0.6541268412682861,0.44211892302286526,-2.8942275038227923,-2.2147092168831626,-142.59522020750165,0.03058393039989621,0.9905831588668061,-0.19493989345927698,-1.2609325224389023,2.7455150166149207,-2.620104377722626,-0.9307488345778874,-0.06238731634771286,0.42056177775563025,-0.2509948286576774,-0.2103979691337809,0.11357030905723842,0.7408725992569186,0.5693891772677748,0.23925292326347536,12.746344764010237,20.37913283350021,-9.079574827831033,-0.14561126664567106,-0.9925247550051816,-0.19811891109694427,-0.9635360765817537,-1.0113263936618684,-0.32689373018582646
2019-08-03 01:33:30.403304,0.7975140361714472,-0.6274292387608037,0.43192145011725935,-1.0528334361708251,-5.865857763446246,-133.88392298694248,0.03684962280358646,0.9926668987714047,-0.1955574193108114,-1.2194649701738354,2.348866118356852,-2.5305866206840353,-0.9360358158569688,-0.0685273245330139,0.4174776559684588,0.30278316628320556,0.1184358216679614,-0.12006839016878956,0.7398994044614018,0.5821131239115157,0.22385588463434614,13.154567598628528,12.628661737539895,-10.931996510304733,-0.13904116028304836,-0.9904849000696677,-0.19370011786134225,-0.5309749511770399,-0.4313625264736014,-0.43301494776546556
2019-08-03 01:33:30.413304,0.7946982208122652,-0.6064723949802706,0.4182706305755464,-0.2638000337768559,-7.136756169660843,-129.80354162617064,0.044248932525746305,0.9956064501505273,-0.19504666877216043,-1.1872820543809914,1.83574466788848,-2.5462036053332806,-0.9335049581041563,-0.10015358613746192,0.4160150890305703,-0.8747668512066373,1.708248208552348,-0.48420528553147457,0.7191442324083943,0.6168121316341743,0.2125415429045818,12.399440513991442,1.8300990573065878,-12.912915171270948,-0.13853148781503707,-0.9926012841757346,-0.1982027868906976,-0.5240417334677343,-0.10030663035335723,-0.47639661813079753
2019-08-03 01:33:30.423304,0.8032643240505536,-0.6055124026614686,0.41176733038854774,-0.32551967406542903,-7.145914302975652,-127.51827150562124,0.04694807201822615,0.9915368398138878,-0.19600905505876748,-0.9082981549547129,2.1467404617473202,-2.6654005681355817,-0.9357591328646957,-0.09207225993058991,0.41165753176992154,-3.098893051343067,1.8009419010424925,-0.2994067209099417,0.6920276642191631,0.6383285513506644,0.21600913498780958,11.793092967820971,-0.6486696434096216,-12.846105149628295,-0.13854424573622123,-0.9867279199955639,-0.19282379175820288,-0.3968650827938134,-0.0712206019030513,-0.3081872118115899
2019-08-03 01:33:30.433304,0.8181939532923189,-0.6102098194113961,0.4097374587113485,-0.5944939226665059,-7.076607618918805,-125.17672621786272,0.04268764298691501,0.9890771948601833,-0.19781175672075235,-0.634732107401186,2.8268840238273714,-2.8092588150637456,-0.9380217792790533,-0.08063545926756974,0.4158611385826771,1.156177152045008,1.631133066935443,-1.4893194065533724,0.6522342186934325,0.6581622180854432,0.21587325472725194,10.536360991004635,0.7743494128579623,-11.639589834935848,-0.14031241889170395,-0.9846038331709314,-0.18924598797710515,-0.5425446762054538,0.3418970357112003,-0.2733393968811731
2019-08-03 01:33:30.443304,0.8518870089497171,-0.6142617448059388,0.40940380586091574,-1.0320464860337186,-7.185488294661654,-122.834123306575,0.0441560624742765,0.9941214004465563,-0.20248274404085148,-0.5108471891954438,2.8452794461505517,-2.923852543466688,-0.9287615913905252,-0.08879430254157239,0.41197843904085474,1.2265574904245462,1.1213254289497254,-1.016583667906877,0.6225906774647941,0.6657950621044051,0.2066798193488359,8.953173393380972,3.025666316360093,-9.606486555900016,-0.14324985743858143,-0.9886322996609663,-0.19441377753520567,-0.8276354045312604,0.3098707162643088,-0.3759273560959071
2019-08-03 01:33:30.453304,0.9196142364962865,-0.6233816937759693,0.4163374171515768,-1.9472160438102395,-6.768514727974683,-119.42561835415933,0.07282403120212308,0.998522443059899,-0.21219861174751753,-0.31807731351394086,1.4936101305928011,-3.0308152910303536,-0.9380156063593847,-0.07846965549084059,0.41456193623435317,1.2333260895540317,0.7006693008343533,-1.5109684233288287,0.6172120338471326,0.666743663227304,0.2075244383152324,8.267288150556361,3.210155039010317,-8.693262856801331,-0.14871303807123568,-0.9919999007459462,-0.19650137677751284,-0.8791282833634401,-0.0992176606106476,-0.8472400725607707
2019-08-03 01:33:30.463304,1.025713206710361,-0.6676397194318093,0.453001690840909,-4.263362697931023,-3.373241972470968,-110.5408081671087,0.07291526708027496,0.9979054507542344,-0.20827655400037268,-0.2692397962062252,1.268867212038857,-3.1009458520525355,-0.9394901511965102,-0.07498870457307856,0.4100632588152938,2.562696130198024,1.158629372030055,-1.8396152345500656,0.6214436887073471,0.6759333210943993,0.20736450402852416,6.9737317504749,1.3182232508860026,-7.746368327586334,-0.13771628867373648,-0.990198451320522,-0.19054234523036187,-0.7960551009166179,-0.2897057058054447,-1.0851934123737679
2019-08-03 01:33:30.473304,1.0125122973024854,-0.6840420787097952,0.4722060867984929,-6.7812482577447755,0.8018197060549829,-97.34659267290704,0.03219540740215645,0.990333112497929,-0.19391982572555774,-0.21200301734642782,2.3943967392453565,-3.1107347102959877,-0.9310147487277565,-0.0842047150805584,0.4032583396521137,0.13892421236134178,0.8582220094191959,-1.532405771424241,0.6180648203508625,0.6908528073371163,0.20910796654638691,4.747135152540835,-1.6104476938438128,-6.636041844813532,-0.13907135280030095,-0.9883538683909339,-0.19100375973698558,-0.9236837579551441,-0.295137109682281,-1.1695184515836996
2019-08-03 01:33:30.483304,0.986533371905864,-0.6958766932562197,0.4740732870267796,-8.189325135101043,3.11615031932509,-91.12002305930108,0.032784779314990305,0.9892675227350178,-0.19494021516210153,-0.04746671020564998,2.0378393649742774,-3.103979475133645,-0.9329937329563428,-0.08916681869678537,0.40366342156281176,-1.4355978744088147,0.5729349354469627,-1.746898983096422,0.6204879477928823,0.6951584991408454,0.2091309253971204,3.626256129076266,-3.2078540533939277,-6.186385521494283,-0.14451494285493144,-0.9902100834242114,-0.19236995337094093,-0.9449120913088163,-0.06142860848381368,-1.2498226563310857
2019-08-03 01:33:30.493304,0.9863250831850331,-0.7112832886446095,0.4706719766901678,-8.599802492249552,3.8953039288552533,-91.0550277059161,0.032708649562139216,0.9926543334589426,-0.19117587333700783,-0.15148655761824328,2.255803828977801,-3.0204074472282594,-0.9358655430909452,-0.09117741929339823,0.4076011465879445,-1.9658922131707652,0.9216041423448809,-1.8746575232105624,0.6433249147954789,0.6973697632398898,0.19319695078450777,2.2397487326178203,-5.820789077958779,-5.199274672760003,-0.14357851441528618,-0.9937970631700379,-0.19429636888145524,-0.918552282676863,-0.165042001145983,-1.3911787755415213
2019-08-03 01:33:30.503304,0.9930797469439322,-0.7165553639957124,0.4645475901045316,-8.21215574443753,3.6356983164196706,-93.34029908963822,0.03339202602572232,0.9934939222130807,-0.19172126369428844,-0.2290248037350821,2.0831285903210017,-2.645243074145253,-0.9351090356437567,-0.09999934268938943,0.4164221474130889,-0.9289938494135658,1.5946063307590324,-1.7742526371982381,0.6573931654831634,0.7066246613713302,0.171400619430307,0.44540880348280204,-8.629003283695694,-4.005316601213662,-0.14004479754576574,-0.9911217677578629,-0.1965586132363743,-0.8315907581494448,-0.16520353147729053,-1.6846204890860987
2019-08-03 01:33:30.513304,0.996157695972786,-0.7023238773594966,0.4612630511213526,-7.306021877409548,3.010537725350975,-94.05393457131309,0.03451589883169107,0.9919421935315428,-0.19448461770081854,-0.22623083166825247,1.7065610868035699,-2.25465901295801,-0.9377908823920864,-0.09890548420802131,0.4101735121176154,-0.957178290298692,1.5474185961725546,-1.3970504325316386,0.6627983680137483,0.7145931007474892,0.1610994052083998,-0.041271022617836314,-9.753549747760866,-3.680988219669435,-0.13999606854728636,-0.992824583950942,-0.20382291862015847,-0.9707443146381385,-0.021754771445636364,-1.7370789873639438
2019-08-03 01:33:30.523304,0.9830894678471898,-0.6585236032205359,0.4653980761987929,-6.1497564247279035,2.601162868712644,-89.33318335231868,0.03678512805952746,0.989802384537923,-0.19595034073167575,-0.14172037972386575,1.4629879839667816,-2.181541242761253,-0.9313306648822876,-0.08427383085788462,0.41085655540050736,1.7622723751926412,1.0885570549778194,-1.6508866909229116,0.6700985709027213,0.7132576614221764,0.15991170835036628,-0.24710976470144824,-9.521111339690536,-3.4514790354900056,-0.13651147700176713,-0.992656252809294,-0.20579527175304044,-0.9348651236161912,0.0633923605009081,-1.7327983483307587
2019-08-03 01:33:30.533304,0.9510963466824818,-0.5892246998548519,0.4766073932317977,-5.228510201337991,2.281317881515333,-77.42881671162596,0.03973390735925939,0.988487511610474,-0.19361506080723753,0.0009587014655556636,1.602945080452893,-2.5981787371197,-0.93541688375698,-0.086925801386999,0.41767760288438105,4.062511884831181,1.1235625299185446,-2.2317029970335276,0.6806888457370266,0.6978544645166411,0.16367196556837502,-1.6667660645353441,-8.348224452002224,-2.3875922504241283,-0.1332090296562746,-0.9919376708214099,-0.20426331665183292,-0.8121251941272413,0.12685690968199556,-1.6903516982341737
2019-08-03 01:33:30.543304,0.9471067703496865,-0.5706826715276131,0.47074931387170144,-6.044666965158036,-1.0152454648344262,-68.37189689491788,0.043465180627279526,0.9880182184747296,-0.1902686939781354,0.15702174768640206,1.8787407560523386,-3.2034527915212148,-0.9376315382871013,-0.09125329064230146,0.41371073814435727,3.4091268351032635,1.3129456353882398,-1.515217057236394,0.6594255523740903,0.6804652063846779,0.1781328676905297,-3.544052280891913,-6.750817772351219,-1.5393176365445633,-0.13265597052031766,-0.9910828021970415,-0.2007016874770493,-0.6607574667950082,0.2063947621469634,-1.6500576134637124
2019-08-03 01:33:30.553304,0.9544495289862576,-0.5786865895855375,0.46469385751039394,-7.679359753434738,-1.9600291855954644,-64.40429478507176,0.04607105472490533,0.9883516550750994,-0.1876867531258383,0.2602263292543149,2.1313992087353486,-3.668498479629615,-0.9291079348819834,-0.09421744926637986,0.39912783075526675,2.873534939337702,0.8224169216863663,-0.7232244739063416,0.6774871410717459,0.6660218326384523,0.20743112132756053,-4.075431759319127,-6.406214079202346,-1.204315036108876,-0.13769399238362265,-0.9907278345761956,-0.19666904087825124,-0.5470681700584509,0.3399145803677178,-1.6470205759207115
2019-08-03 01:33:30.563304,0.9704783865704759,-0.5887868909827981,0.459460610151985,-9.325897504979341,-1.85123996676891,-63.83869818319165,0.044037032031759904,0.9893509829570373,-0.1890947697787164,0.19251976316591052,2.1405867996674988,-3.4831535240402256,-0.9248704796357861,-0.11374345249865539,0.3825835150187852,0.9992328978442158,-0.1097216565483087,-1.372998477621342,0.6969329581371967,0.650879405357933,0.2291609039979356,-3.954666759235471,-6.94695425456652,-0.8456347521528675,-0.143875972261371,-0.9903659748769995,-0.19571489307167356,-0.5080498696302992,0.503079942132866,-1.6946192525714474
2019-08-03 01:33:30.573304,0.9901359092435915,-0.5848205089187194,0.45497206703838133,-10.450652580776906,-1.9906419419790065,-64.35571913936073,0.03522881513760074,0.9909601071280423,-0.19647259486113638,-0.11964153172619979,1.7386811205730281,-2.2930043987633058,-0.9284989958150383,-0.07777298551434514,0.40598815426160323,5.037621814901026,0.5880257186989217,-0.32334266056196304,0.7401944687471673,0.6213793424246519,0.2558960105221482,-2.6856461324554792,-7.011201454660236,-0.6914993495533744,-0.1396572176862879,-0.9890143918453551,-0.19775937903642232,-0.6091770103692159,0.4275097639314254,-1.7377586890772003
2019-08-03 01:33:30.583304,1.0086551847749978,-0.5748554063922807,0.4498561161082223,-11.41568482710479,-2.3919937505568636,-63.92561706995106,0.027767017268174123,0.993444648186261,-0.20268956384390843,-0.4129362289514019,1.1738640731898606,-0.9463548716863647,-0.927958616837691,-0.08551596168183112,0.41607358983042264,2.6786012293831143,2.410140125036965,-0.17954862962717993,0.7821163599566149,0.6153211159311675,0.256938293652851,-0.781182490488428,-5.567664816223774,-1.30905553666428,-0.1364052256891413,-0.9892496171455775,-0.19400244395774738,-0.8097392089943839,0.024905511720963273,-1.7307515811251937
2019-08-03 01:33:30.593304,1.0066400997474168,-0.5810473153847822,0.44342588797390103,-12.508456393018964,-2.364739439750055,-60.711137026857536,0.03299303946341591,0.9957411397341733,-0.19726027890626235,-0.314797775100621,0.951794562070454,-0.902705606791338,-0.9267006838538941,-0.08941407225535002,0.42206959528657195,1.3749960794186071,2.804249988418724,-0.7104759683943138,0.8122170391105166,0.6184595259922361,0.25342742999045464,0.6560157284552267,-4.57099832187271,-1.982435634180131,-0.13537523704447646,-0.989767653884245,-0.19655828951754306,-0.581915677415838,-0.0003482843907022455,-1.6890462315672579
2019-08-03 01:33:30.603304,0.9766788549239444,-0.6174407851250466,0.43413470379922303,-14.190488611285472,-1.6387775719314868,-52.83509104142987,0.03629937320846578,0.994916268889908,-0.1927205402253568,-0.2968924809184835,0.6383645359235558,-0.7724148233805361,-0.9309996134397432,-0.09223909118284983,0.4233570547871492,1.9583342860497106,3.1199037679200243,-0.9215406372406132,0.873515833239168,0.6269264304316595,0.23383536257641258,3.5558082090040957,-3.0589034659377767,-4.756826396737407,-0.13481134531337657,-0.9910362949612675,-0.1961222372986723,-0.5268488700323642,0.06420448453426604,-1.646768339390837
2019-08-03 01:33:30.613304,0.9967858157251,-0.6147631812319253,0.4176254924764498,-17.013431602057945,-2.158659339905068,-42.08956975441395,0.03742450407022352,0.991881580334789,-0.19593568833093264,-0.24118096217414792,0.4246053170097043,-0.7036978808468194,-0.9303363951900192,-0.08614566401224516,0.42213531133026505,4.37851389686267,3.0465829615418794,-0.8845355710828562,0.9517963654453436,0.6218609654379094,0.2229051944204176,6.148268137624125,-2.1836310577768616,-9.874681964120203,-0.1320609368443527,-0.9919258496986573,-0.19411333458894464,-0.5600221730151709,0.05740286374175987,-1.6083343677314983
2019-08-03 01:33:30.623304,1.0319485665359394,-0.5613764873128495,0.39315426726336794,-18.648281736084748,-3.1329444186160353,-36.15433668123444,0.03581039515384208,0.9937157695156529,-0.19780860412869683,-0.5557587305107456,0.5361356519611897,-0.3730358119494023,-0.9274161754831175,-0.08028202979378489,0.41436796703746054,5.757786403917227,2.316810465307138,-0.8519238846136364,0.9765911365178956,0.617392098039782,0.22671764032894193,7.313915264807948,-1.9986160062386615,-13.376354821396543,-0.13120698131373498,-0.9929142339193894,-0.1927723459118733,-0.6028037875117839,0.04073489689292141,-1.5827015672030464
2019-08-03 01:33:30.633304,1.0363679253146405,-0.5487148624491056,0.3732683699674046,-15.246748753044749,-6.248309597334827,-26.150641561354803,0.03624425429760242,0.9967847567837462,-0.19428075187607083,-0.9561036614795467,0.31851435647709936,0.3114532450915837,-0.929142245416604,-0.08283321260973416,0.41269416147888194,5.736328463132178,1.8119716539211155,-0.9200171921008148,0.9843674511450679,0.6080383155266456,0.23153333330817627,7.652652101256939,-0.8486209165817822,-18.145337228132718,-0.13188657332831272,-0.993700897266839,-0.1924147265332278,-0.6355339852913875,0.028905186832911326,-1.5503437533475573
2019-08-03 01:33:30.643304,0.9956562186780034,-0.5593248748830407,0.33695375615382744,-12.983474814069053,-9.088561225293219,-13.485525812165395,0.044613042095963264,0.9909693327520254,-0.19313380631451327,-1.4002999988379345,0.0016802939633224108,0.5785960768093109,-0.9362543374335762,-0.07996163622821259,0.415046798130193,4.322052631138143,1.2829432012245001,-0.9216833149337169,1.0007297028051347,0.5872731639008244,0.23107831895729536,8.251049778812439,2.425482013332939,-26.188452594850858,-0.13347529685557696,-0.9941841853344469,-0.1920026900013406,-0.6646920314201582,0.03523815118558667,-1.4650686199748197
2019-08-03 01:33:30.653304,0.954197108164085,-0.5531223407926372,0.3147805173457171,-13.08533936443103,-8.965798140874263,-9.038024583578297,0.04661274551037707,0.9948300745211316,-0.1906148594194733,-1.2463308920816019,0.024401370635410303,0.41730600327581324,-0.9442892963531018,-0.06705571073471309,0.4173635526025497,4.462520906876525,1.3130985540756974,-0.8516358442661617,1.0070292644398957,0.5696792804304751,0.22344485213491103,9.139538747227759,6.101371494471995,-35.14529238935237,-0.13498605008290868,-0.9935098422991651,-0.19364500587303732,-0.6656639200230599,0.06222914281176775,-1.3566223393508186
2019-08-03 01:33:30.663304,0.938262557988852,-0.5537251626671174,0.3147003480775078,-12.137021293779075,-7.676680341752515,-7.310366181529573,0.04133939718151935,0.9916086083881586,-0.1907595542564858,-1.2630740251013592,0.39742634441249003,0.1987870853524303,-0.9485541246531511,-0.06999457997701586,0.42007774735367703,4.3049263878698145,1.4849597749695773,-0.7830869800415287,1.0122350323755025,0.5668032736415811,0.22237876054761369,9.468340916573668,7.627122207845886,-38.726519272758345,-0.1357416960895754,-0.9914668137797686,-0.19676127874066254,-0.6404091225826922,0.12162844010999006,-1.1898512074421193
2019-08-03 01:33:30.673304,0.9315901821038484,-0.5735261271931688,0.30439479045515844,-10.74389174119193,-6.037696650366289,-1.2414251659590776,0.03909076108907387,0.9904930672574561,-0.1904051143003298,-1.2548785810980354,0.2751313462188919,0.22869849496895275,-0.956742586874612,-0.08880390911481502,0.41879919414483907,1.6107343495090327,2.3753474485458326,-0.789012740253605,1.010305025368192,0.5707723360438625,0.2208134173935104,9.458755993463342,8.504528098010038,-40.810235494945665,-0.1353266438863472,-0.9898722926555098,-0.19774085217993753,-0.6722055708872429,0.19660317519338616,-0.9346724161511122
2019-08-03 01:33:30.683304,0.9417598446823124,-0.5863328676442159,0.30293382438646843,-10.541827486601523,-5.712617853342188,2.4150355121839926,0.03924815431562598,0.9905665227134484,-0.19054949531739881,-1.2481630516950761,0.048367745661393714,0.32416812473475765,-0.9582537309406752,-0.09139048119201684,0.4144690899362063,-0.566929217253412,3.308032464651363,-0.9784807136853887,0.9921099214087712,0.5682306651599793,0.20589866575294036,9.688327588174854,11.367101659321369,-49.249230361669476,-0.13211933315136423,-0.9930090386771823,-0.2022969173234484,-0.9293785245424826,0.09495914065272931,-1.069560463490386
2019-08-03 01:33:30.693304,0.939844721583114,-0.5896847401519325,0.31776129837762285,-10.334056066281288,-5.598175621988209,3.348884698127388,0.040521873736609294,0.991227662313395,-0.19129495633515264,-1.2399810759858487,-0.022556676249400883,0.3726833837354195,-0.953960547598567,-0.08350328311032996,0.41613819301665855,1.033089887411164,2.943011936081902,-1.120638800256503,0.9480510386182343,0.536120822614557,0.19409600117409734,9.649344407510954,14.255913763908218,-59.2068288083887,-0.13519039815945094,-0.9927009622905434,-0.1991129427692302,-0.7653805735226575,0.08990900278661715,-0.6786601757467214
2019-08-03 01:33:30.703304,0.8696865990049765,-0.6050392412123284,0.33565976945441545,-7.664170587184929,-3.614758654293186,7.797558037540821,0.04197726392309357,0.9921105509268644,-0.19163642897750632,-1.2332320203982388,0.004124672537950572,0.410794072635832,-0.9469711168036944,-0.0799317650226986,0.42108125868972,2.68672079249758,2.3399058150407113,-0.985938018099833,0.9277414305789587,0.5108582211663589,0.1813416558358222,8.413826639147434,15.03156523800233,-68.3662334763729,-0.14691974124807833,-0.9881235746675142,-0.17494392614110402,-0.19655450353393036,0.38665579421671575,0.7041755926815856
2019-08-03 01:33:30.713304,0.6327743392587029,-0.6643688433740957,0.3412177557504535,-4.945747473153748,-3.1067277463212255,14.224856424708392,0.0420840621562255,0.9935230197549402,-0.18933526711009355,-1.2145080049800967,-0.011989784323572013,0.5705351193755027,-0.9420770660369217,-0.07854807322530746,0.41928293038537917,1.5835968394285675,2.229142510334088,-0.46538972476380186,0.9356270382449249,0.5019416934314367,0.17329444680286019,7.7701220486849865,14.847056975340696,-72.9305114945095,-0.1507980527054244,-0.9868394380944783,-0.17039866276309268,-0.04251248883062286,0.48770963772191367,0.9982106619424919
2019-08-03 01:33:30.723304,0.5754807240838044,-0.6786228347317445,0.3410026048731154,-4.449345691465273,-3.281124088965128,15.407044212247271,0.04130655688917199,0.9947527946726575,-0.18542114611603383,-1.1950271917774433,-0.07693538201116297,0.7623646103986816,-0.9442462481897389,-0.0710609063668125,0.41184629102308284,1.0904733738436698,2.219361159986258,-0.33361842684907383,0.9366656416086933,0.504639209878427,0.17818374048489666,7.5650760175124425,14.794208541063197,-74.22998014213898,-0.14917330817844554,-0.9876420996334815,-0.17782370153063032,-0.1623209300839269,0.4477575421632679,0.6186059406110299
2019-08-03 01:33:30.733304,0.6262377060225319,-0.6737660755004398,0.3363141410166411,-4.692423110958026,-2.7756132949603836,14.016092729542729,0.04337490613275878,0.9946540302408482,-0.18547649655964493,-1.1887725217175362,-0.03315506486468797,0.5875262551399433,-0.9516514487797506,-0.06747115929832975,0.40560191530489337,-0.10747130594089516,2.100505309816969,-0.3404370647009625,0.9111414328180557,0.5183681126971602,0.17671081299943942,6.142867210600031,14.180578497910219,-79.84161555471827,-0.1448430523520163,-0.9894089292406576,-0.18979272520176776,-0.4005272075709194,0.3092870092286595,-0.03424163582527136
2019-08-03 01:33:30.743304,0.6121551849469805,-0.7006182042792644,0.3263618782945794,-4.059859203212385,-1.092455262429378,14.12871704847381,0.04849215783553079,0.9940393105472426,-0.19066406805101557,-1.1708852228571143,0.14710044532675035,-0.021069235747681884,-0.9547656696044216,-0.09608865224484517,0.40541741119273217,-2.768331127665402,2.220732249552505,-0.32852877625184507,0.869861663368975,0.5383781478800406,0.16742015464845786,4.450334608164567,12.955909201532222,-86.75214911927324,-0.13916037955483057,-0.9906310039952928,-0.1976033625045114,-0.6451667767680395,0.1642288209723753,-0.483247367730106
2019-08-03 01:33:30.753304,0.5995385793393857,-0.7055049574212353,0.32611794050914095,-4.560373085248716,-1.0185786489611843,14.604972136197807,0.049518019826098714,0.9947343900206492,-0.1899870867324386,-1.1233211749676701,0.14396478115272995,-0.24525194111407614,-0.9515660295650263,-0.11050656146951823,0.4007913787103572,-5.47598796008779,2.295908516659934,-0.5253376448515945,0.8298386260235044,0.5494204824397999,0.16327933573549888,3.9777274260746496,12.340930590103373,-90.47733166429178,-0.1354969516699041,-0.9904798003972661,-0.1958145027067142,-0.7320697797404758,0.031386172039470375,-0.42745052204045536
2019-08-03 01:33:30.763304,0.602694194389501,-0.7072798867582379,0.3300957001444458,-4.23822769541885,-0.36711803298193235,14.095942692695651,0.04932029514837297,0.9921887386426906,-0.188477497426486,-1.15853902016693,0.2436490443121368,-0.4266352384995258,-0.943118673316038,-0.08200637994786135,0.4080959255797295,-2.169910716594679,1.9711054842461466,-1.2244520821054539,0.7668682202612251,0.5580211949122642,0.16628399123330354,2.314160182388811,8.851003180672341,-97.04074285437248,-0.13776995756963048,-0.9898867250313547,-0.1964967607544628,-0.5788925607276796,-0.13650056169583183,-0.39005382405461536
2019-08-03 01:33:30.773304,0.6116334614242357,-0.733569979357586,0.330840570811168,-1.3908202623469605,3.1388523218375597,12.107656659225068,0.0425294420209603,0.9927832552749019,-0.18824565006857974,-1.1139574202975557,0.6254333457618597,-0.624793955341921,-0.934422710571731,-0.07309270292567416,0.4101546225490684,4.077315908636098,1.7674446983920402,-1.5619923694193276,0.7591861079227326,0.5516714431211214,0.15695810974830077,3.0346017069077313,12.902875528187174,-92.41751483651328,-0.13786556120016263,-0.9892699037078599,-0.19971740657548848,-0.5537531475299894,-0.07245686073517933,-0.3575787410207371
2019-08-03 01:33:30.783304,0.6308843618731905,-0.7429782220342082,0.33839672540819465,-0.7493619175204494,5.3241788032659425,10.55950090251106,0.03636677912661571,0.9943538478868407,-0.1884591115842429,-1.0452243320100325,0.9927624866015147,-0.767932953928927,-0.9379200483887998,-0.0782810324896079,0.40297314815754004,2.0159346685763087,1.7693988672379863,-1.28076627421791,0.7963154989191376,0.5408204880322093,0.1452940731262155,5.181550116952099,19.65629963971817,-83.2967181730908,-0.1392544874303748,-0.9915221038993429,-0.19987852495503108,-0.5851557874209581,-0.014039999303644175,-0.3273108634710359
2019-08-03 01:33:30.793304,0.6111389719018944,-0.7620888716940021,0.3298960829958486,0.6526350044584418,8.91267706383863,9.966171479408255,0.036349828633079895,0.9948757419558358,-0.1889607774529828,-0.9155753451792759,1.007541998724577,-0.8534163256817922,-0.9408916490390938,-0.06370420782510641,0.40043143275725757,-1.2043837466394125,2.0919624111978594,-1.1823703568946264,0.744789531438238,0.5699612534157988,0.16927595193116757,0.640271961724955,4.9536338780810585,-102.67032523434156,-0.13958835517725657,-0.9921378887610757,-0.1995551460068214,-0.5747152565060614,0.04735351845722597,-0.30463935229335026
2019-08-03 01:33:30.803304,0.6066227849462422,-0.7468188050358323,0.34995502900434455,0.7539201104787657,4.990645075653766,8.808408835888352,0.04254921426711248,0.9934969091519668,-0.1893617543509874,-0.7329448188281807,0.5740516858696936,-0.8943846836702958,-0.9325886687018795,-0.06348495054206688,0.40726714038323975,-1.792577509795466,1.6906502610519605,-1.2928504137898493,0.6730751183856453,0.5743128490021013,0.15466051499324238,-6.576024843943266,1.0925254963991249,-118.08498918678578,-0.13909884897447686,-0.9916597062347547,-0.19921052518451257,-0.531762798437359,0.0976232608867378,-0.2927575567084576
2019-08-03 01:33:30.813304,0.639945355224651,-0.7098141015489322,0.4147270256088654,-0.6004393255246522,-6.927653408110087,4.853453547826675,0.04046408984893465,0.9928166714261228,-0.18846775973820415,-0.6721493259964121,0.3758603264112665,-0.8704795877355022,-0.926498772223946,-0.07579909508877732,0.40811043062973273,-3.8591770493965787,1.1789352464559988,-1.0729925520012955,0.6876928734678095,0.5767702751532722,0.16270090452604494,-5.123830270551338,1.71557410162617,-116.63950927342506,-0.13810470451827472,-0.9910787637182221,-0.1990631245222204,-0.48282153041224246,0.12483974000245535,-0.293788794369635
2019-08-03 01:33:30.823304,0.6728471934128475,-0.7110925416512364,0.40805619912341956,-3.855147783870847,-2.271753770523399,6.250121920564236,0.0383356561936655,0.9951014278852793,-0.18943608934733083,-0.48948459608450146,0.39559024776676704,-0.612086403465357,-0.9245693932383129,-0.08784122962219916,0.4103075101128092,-5.874686131911504,0.9074923218024993,-0.8108883801734789,0.7118171996233238,0.5795622358456259,0.17517622023541052,-2.7928531966335433,2.4350335964260545,-113.35273938197571,-0.13696532940143064,-0.9914371682177271,-0.19931800474669742,-0.4537662582922427,0.11703989779323319,-0.3099915150638379
2019-08-03 01:33:30.833304,0.3012257855967194,-0.777895710756818,0.5077915524215929,4.394893141333833,-3.9182444806754315,-11.53934248682565,0.03875514671303777,0.9946132237349357,-0.19131505507653102,-0.38494764294767975,0.5030094380772572,-0.4810287664809802,-0.9332392623495207,-0.10459941061924492,0.40579256147520076,-7.97023508471787,0.8314873974275604,-0.42979988352257803,0.7093353072230918,0.5817005522848283,0.18054354800159467,-2.980568262641768,3.0099061998764207,-113.91802648134893,-0.1360407761834902,-0.9926450689909527,-0.19979839540437727,-0.4357095920207271,0.06428199704712803,-0.35034399609457456
2019-08-03 01:33:30.843304,1.1071535814307967,-0.627397061351702,0.3577542772087697,-13.647572433747023,9.85490771608216,20.508443558143487,0.040800008059447036,0.9929291449830859,-0.1914661946746086,-0.36998202017639803,0.6170291907077915,-0.5441842571942833,-0.9476111067740361,-0.11496985803572156,0.3996118608274882,-7.117495738604283,1.4040165805107847,-0.5377975735932485,0.684965751947518,0.5864161096324635,0.18581557330546944,-4.1861777575265675,3.8526271221161803,-116.7787322728299,-0.13570357823526966,-0.9921533902189199,-0.1993649111184049,-0.3529686319496507,-0.050228654564643004,-0.43424533675716737
2019-08-03 01:33:30.853304,1.8107873487271944,-0.5047536489643829,0.2182812079711966,-29.883839558235195,20.675708937891937,48.3067204321964,0.04377945285984803,0.994675012985471,-0.187790724741881,-0.32871001475744555,0.6828630519693987,-0.6933718822565802,-0.9403955999284129,-0.17196441564285433,0.4001629752252667,-13.03805098201227,3.5179782890731865,-2.069226184513366,0.6460445201675246,0.5977548793155086,0.19635500391775967,-4.858484563087132,5.674006176636546,-119.99872799015749,-0.13574113810690136,-0.9912441398197493,-0.19821710598715342,-0.24144348698326615,-0.05474083325993541,-0.5201255699183214
2019-08-03 01:33:30.863304,1.5388821832359063,-0.5661689865959444,0.27270372689216554,-24.22585995129164,17.0541507140897,36.37884971958629,0.04674130020067781,0.9995203709411178,-0.18136182721813632,-0.2438899906386929,0.683794633837098,-0.853590391200787,-0.9349842885592435,-0.15002229257583138,0.40275428504661337,-11.169138263166008,2.868396342880082,-2.863126057492913,0.5968154384416925,0.6342027543887638,0.2035039463465766,-4.9097284296225405,9.108272148037571,-123.86330563543665,-0.1348477268091343,-0.992887280210469,-0.19676124510682227,-0.3261068006003212,0.2617752313353405,-0.4575847396006789
2019-08-03 01:33:30.873304,1.0061651242183622,-0.6569045469917524,0.3696081296396846,-12.60031167269772,8.608469756765466,17.70401771221283,0.048739208308391194,1.0047489277324329,-0.17501434145305095,-0.13842064998732956,0.6251836175687474,-0.9533572886524259,-0.9394933982122805,-0.07317932778034551,0.4105589123604711,2.8606843593693028,2.49162463664539,-0.1750249466144278,0.5748497559859779,0.6578295123882739,0.20845773218242653,-4.864645312867315,11.137248953130117,-125.4976651605768,-0.13785991511591017,-0.9904670357282839,-0.19848593057184455,-0.2857374208673878,0.2848410095222471,-0.47981830526724195
2019-08-03 01:33:30.883304,0.8611418192788696,-0.6439498986517128,0.3726433739124722,-9.486488139523917,4.896955035389055,20.178374503303594,0.050011716608032254,1.008838199390916,-0.17024004681008645,-0.04425077474715817,0.4973868103968064,-0.9698471927227428,-0.9394802713738386,-0.08704963058056683,0.4174513585186592,-4.108056376741388,2.0968337155785797,0.7449838463723689,0.5769304191549852,0.6607199406504867,0.21177116678426522,-4.8587650335227694,11.373339970258456,-125.02592682329724,-0.1413364228942392,-0.9883474958419355,-0.2012025945282232,-0.17957863999382698,0.15632393355404822,-0.5630528407750421
2019-08-03 01:33:30.893304,0.8875886877888046,-0.6530915572355769,0.34350589500310585,-10.263868863253318,11.22001361818352,12.90601283601977,0.04705175424380929,1.0064725576237135,-0.17298040824098973,0.04197145181845032,0.34114657884831895,-0.7144732337026684,-0.9402035859865072,-0.09442611242880668,0.41925227264884435,-8.516648390079814,2.146772387157821,0.9337470347046398,0.5709990828790578,0.6613165922587798,0.20813037982009933,-4.938209654157166,10.792091814310982,-124.99395072847167,-0.1421038028844613,-0.9887019288289575,-0.2020333700500238,-0.18229575728807723,0.09139918540623805,-0.5810672123320919
