Time,LA_AccelerometerX,LA_AccelerometerY,LA_AccelerometerZ,LA_GyroscopeX,LA_GyroscopeY,LA_GyroscopeZ,LL_AccelerometerX,LL_AccelerometerY,LL_AccelerometerZ,LL_GyroscopeX,LL_GyroscopeY,LL_GyroscopeZ,N_AccelerometerX,N_AccelerometerY,N_AccelerometerZ,N_GyroscopeX,N_GyroscopeY,N_GyroscopeZ,RA_AccelerometerX,RA_AccelerometerY,RA_AccelerometerZ,RA_GyroscopeX,RA_GyroscopeY,RA_GyroscopeZ,RL_AccelerometerX,RL_AccelerometerY,RL_AccelerometerZ,RL_GyroscopeX,RL_GyroscopeY,RL_GyroscopeZ
2019-08-03 02:41:13.335259,-0.39453648570129796,1.1713480916200383,0.7544203984823225,-109.81245290291243,56.714595297700356,45.349845534903736,0.07003585077315719,1.0028422334742906,-0.1644986881653446,0.03895286425938394,-0.5907838814780875,0.08567390559501512,-0.962355941769229,-0.0198698432456046,0.43494446974608547,-3.3215773020940484,10.73008622848652,-2.9162294064652374,-0.2582564474914754,-0.8616330896102693,0.27152032897696143,1.9519767321565324,10.182798097114413,1.3220155184495308,-0.1077220000474506,-0.9998206805757458,-0.10963195535663321,0.22023094525042447,1.2638462458032493,-1.3133763053384089
2019-08-03 02:41:13.345259,-0.39234773040379384,1.1450569278736469,0.7658848252357023,-112.76102899919775,57.613282076260695,42.73218837079112,0.06711009894073403,1.001388553069823,-0.16911940439330939,-0.14630813490363645,-0.18798137794133707,0.2237265024573833,-0.9647147260484839,-0.021465800106842927,0.4425224809939541,-3.5585178514398152,11.027514425680836,-2.2270782190783507,-0.284538061041269,-0.904085453969939,0.3256634322345881,4.468916024757408,21.012982054996662,-0.7820773140559868,-0.10492137777482877,-1.0007025011395387,-0.1084308486654551,0.1696649459417253,1.3563135118375407,-1.2931264642425055
2019-08-03 02:41:13.355259,-0.42535761346860085,1.1367633813568088,0.8055640336262717,-116.50214380929481,63.59027820762187,38.13327230900767,0.07616210683750356,0.9946353928293469,-0.1679396037692424,-0.3612116914857332,0.04992921539603155,0.35650781278610255,-0.9633735331802515,-0.023505802560047317,0.44675768295476503,-3.1119879633242897,11.216947775551233,-1.2008954052348462,-0.29094104439348933,-0.9299330366243369,0.34864632602710494,5.05096679575675,25.66119861514896,-1.491391127508617,-0.1074268194737833,-1.0017268187470036,-0.1073930122912293,0.07691967278626792,1.3729165785647945,-1.1871214206355012
2019-08-03 02:41:13.365259,-0.48132306004394154,1.124637165161737,0.8334656456263428,-121.47975466465425,72.44189631521596,31.989260638240733,0.07560323098230728,0.9928020009670947,-0.1652304725018592,-0.6917047523746023,0.24255386428022283,0.40141209127789435,-0.967286071128221,-0.029827418255836638,0.44636558621733075,-2.8888320654049977,10.222701646042735,-0.42007335768383036,-0.28338282645596513,-0.9477421219623808,0.3564867057143125,6.033369833076776,28.58143718013407,-2.0655699952283246,-0.11020807075994161,-1.00305562624137,-0.10726501186064426,-0.013010959558686563,1.3852194356950103,-1.0438703298733627
2019-08-03 02:41:13.375259,-0.5071649734504395,1.1186844454979807,0.8318198694309442,-124.54494962736368,76.47841503416235,28.527574999226438,0.0775229369711779,0.9932490834823211,-0.16453009172566654,-0.8111979125995255,0.5818063285260829,0.4222312097106443,-0.9612365975004319,-0.04997082270425081,0.44564107094357563,-4.486195200483435,7.807905868933252,0.7866002022946446,-0.25612697970389237,-0.9659322632881739,0.3558126803846245,8.155765816448557,31.434480095282332,-2.408330513528249,-0.10827378596770765,-1.0045552924656476,-0.10884110504850178,-0.05108665589467802,1.4812676579929127,-0.9634047770635905
2019-08-03 02:41:13.385259,-0.5513309208523081,1.10551539772488,0.7973189578822739,-130.87535896845435,81.22365389256308,22.54638354060049,0.08030567864485728,0.9888163249509031,-0.1616961284102292,-0.8976537601075857,0.5430100116079013,0.42812543868642683,-0.9492382064596521,-0.053893637336254144,0.4485740673811262,-6.209970703838045,5.366885229958597,1.811073495569745,-0.20786271084951158,-0.9634322070606358,0.35912868022065775,11.465306234188382,36.994453777740056,-2.694413347549006,-0.10753604736580548,-1.0041353278339273,-0.11196639866120843,-0.13211239172075037,1.5067012243353213,-0.8407633965122145
2019-08-03 02:41:13.395259,-0.6268300869398662,1.1154276941910648,0.7705625004205378,-137.53643145001965,81.99403323968964,15.322409771933478,0.07282295320124411,0.9875456449504818,-0.1592445020690614,-1.11589117302502,0.9517650763661335,0.3874620056260606,-0.9378161968288056,-0.05325577162090707,0.45286398328675787,-6.485231612576549,3.8319318197799355,2.360734699963028,-0.18247335256178213,-0.9597103167943759,0.37442101379593506,15.635690998390249,47.61893304226811,-2.257362617072405,-0.10742422517927573,-1.0042911797405076,-0.11162573658441718,-0.25294649521005064,1.555066577905095,-0.7416074472943468
2019-08-03 02:41:13.405259,-0.6511309959145061,1.1274194251861207,0.7672179359584339,-139.06674800047557,82.24592455830438,13.522596935344692,0.07620976331078066,0.9852162463587304,-0.1614911331049533,-0.9381866504940075,0.9895755208217062,0.35125243860970456,-0.9291421763434254,-0.05881320090276335,0.45101122598155935,-6.51582386894545,2.39319416297663,2.740826500616731,-0.18021507375575058,-0.9570329151034065,0.37755295246574533,16.57156687343487,50.498961406487545,-2.0718436114572607,-0.10732311567060085,-1.0057614046445107,-0.10749013828339722,-0.37488332806047425,1.7164961759227593,-0.7160857305062487
2019-08-03 02:41:13.415259,-0.6881632093893165,1.1612747300986352,0.7837962524646691,-143.41596599829526,73.67872265183534,8.160889842024753,0.08322581186593683,0.9830754311762439,-0.15896995500113723,-0.9604043282928458,0.6429764814064982,0.28115285933994744,-0.9101362298394395,-0.06525143518068055,0.44473472253829405,-7.44611100612318,0.576008501240855,3.150792061723567,-0.1827227039561404,-0.9547446017674754,0.37463772924974903,16.637606542454186,51.94660981973411,-2.0752568960895883,-0.11192534382288624,-1.0032678697786084,-0.11021819520367261,-0.48480661378599804,1.8921843048164635,-0.6642611390552761
2019-08-03 02:41:13.425259,-0.7295287100170919,1.1908741326219203,0.8200111694821823,-148.9659485833624,61.25391651031831,1.505461864899279,0.08321906996069058,0.9852680349126718,-0.16017842905592983,-0.9360695884525306,0.5923679551782832,0.2489010665886308,-0.8978776801210048,-0.06632230118822058,0.43621113709017356,-7.938674984402942,-0.5553469752906096,3.609457172944714,-0.1719356318471426,-0.9519324107250837,0.3747886690991181,18.60578412288766,59.627855011575846,-2.1223113231382196,-0.11576326486117441,-0.9989846020771748,-0.1137236868803806,-0.5103832254592903,2.010620473863549,-0.5906308393207547
2019-08-03 02:41:13.435259,-0.7330836997166479,1.2224850991402332,0.8272161984626601,-151.091951084143,55.07209612527079,-1.6364052001864033,0.07560757205208882,0.9866778257258834,-0.16259916575052502,-0.7586181115608481,0.974035103729008,0.2666599407491641,-0.8928700007926064,-0.06029712294937875,0.4294560733388391,-7.729081897255283,0.1120652489648241,3.743790233744689,-0.15603580709311088,-0.9346967348785861,0.40660796095935714,23.12322232947776,79.97498055282318,-2.0855085032803666,-0.11357751465809288,-0.9981061801466414,-0.1100285146993371,-0.4379253513111493,2.045808833606524,-0.5527994543779948
2019-08-03 02:41:13.445259,-0.6885656162536438,1.23060094032099,0.7904677823720725,-154.22431538648493,45.339411924949765,-7.536896944345021,0.0729880376255892,0.9944575784520986,-0.1588866633237778,-0.7284663495408499,1.3945270892321784,0.16107555981978333,-0.8982108365992987,-0.05405503029932335,0.4170243216017436,-8.212720455923211,1.153227487086185,3.638931405713213,-0.1732354489076829,-0.9174824322198656,0.4413460926897515,26.76343160373377,96.06675751959493,-2.864051446658461,-0.1138492951506976,-0.9998849995614145,-0.11090132789293271,-0.41411330483248365,2.00060708942162,-0.5404689040661003
2019-08-03 02:41:13.455259,-0.6745194672271106,1.1813485700919346,0.7842001465481857,-161.0065152430643,37.27178385338708,-16.733452050890385,0.06966323852914932,0.9953663366104888,-0.16019395726802516,-0.6537994993800645,1.3327759539339366,0.064127584653183,-0.9015136211079172,-0.05128831353293768,0.41460839715408854,-8.644058586637692,1.5204777294692553,3.5473159384587243,-0.21830297777264548,-0.9078799079544186,0.4642675923118487,29.634055496511955,108.26017589201166,-5.262751717722499,-0.11459010631345479,-1.0015391898105959,-0.11386791920936286,-0.43169472299584,1.9306304756976538,-0.55889099691106
2019-08-03 02:41:13.465259,-0.6706042008185845,1.1564872471783274,0.7839916557937666,-164.38610295687218,34.49842003395112,-20.036181137369706,0.06510980149849677,0.9915765104340305,-0.1607286522701732,-0.5432618522190812,1.4537470683665712,0.18144946555522526,-0.9076774501984566,-0.0502869797286905,0.41481832394434626,-8.522860944527034,1.9426535729236998,3.480808924734358,-0.2557749947663603,-0.9081661258628301,0.4907022953588935,31.441355891540677,114.592938600139,-7.546164378189896,-0.11246467688901966,-1.0012834631217982,-0.11394141973988342,-0.4435204168427769,1.8882151382060224,-0.6043078339512388
2019-08-03 02:41:13.475259,-0.6741491231631336,1.1617321638301923,0.7824869824000796,-164.5481724032637,34.64069093564355,-20.19724962474841,0.06992971681621071,0.9913662728054387,-0.1603905331175305,-0.4350642317999831,1.078990047167767,0.4749171248689656,-0.9160663229609631,-0.05631403447727857,0.42163246882779104,-8.598956334596334,3.1414325516222945,3.4934974745494802,-0.2623770083913607,-0.9196776573160175,0.504979115028011,32.51891068404491,112.9013277651098,-10.037618563459011,-0.11028613690965162,-1.000188143156693,-0.11299761138361314,-0.45835406617577074,1.891817495609906,-0.6413936547037451
2019-08-03 02:41:13.485259,-0.7046798744275354,1.171375689233734,0.793149109080369,-164.41817848124606,35.24452033684055,-23.604311346066783,0.0719049104079714,0.9926497695466898,-0.15895668542125313,-0.3261632326319921,0.6254651273904126,0.5668155529075591,-0.923307311053894,-0.06416046581082431,0.4300670981294165,-9.139939187701241,4.472115831063966,3.4768731259509775,-0.2649541289362889,-0.9500951178931405,0.5375070082151162,35.84155275968818,107.95317921843458,-15.749438845180466,-0.11037354385705553,-0.9993591161236565,-0.11273463183530909,-0.48768711418417987,1.9544641096057649,-0.6316821067467676
2019-08-03 02:41:13.495259,-0.7623707940915004,1.1671327758191175,0.8211615453003417,-165.72657974161004,34.82961039603607,-32.04723590476692,0.07355353216351936,0.9933905597578598,-0.15728550768126148,-0.31150529844636615,0.49640999543759906,0.851532740938349,-0.9283782118562913,-0.06591295109565794,0.43305220847420633,-9.714581000803193,5.112871160026701,3.3849705064934126,-0.25637674491236256,-0.994865376453208,0.5746357767294322,39.10664503023057,102.14456866466668,-19.84300920546528,-0.11163534705231586,-0.9988372049776605,-0.1131173602205014,-0.513300684764719,2.0323247115826995,-0.6082506124927456
2019-08-03 02:41:13.505259,-0.7853663989161074,1.1631683149928556,0.843759401845022,-166.13643100427768,34.99972991565498,-33.47957652467609,0.07132244928638148,0.9931633028629206,-0.16046895150729526,-0.22121704870759942,0.8577279123304831,1.26324663869886,-0.9338173507845533,-0.06675118859693763,0.43482214948074754,-10.183314430552239,5.576822573903166,3.362601016638563,-0.2265344990353888,-1.046264212365497,0.6025402868942152,45.6388770586238,97.696307681802,-24.736868287578847,-0.11256157568586579,-0.9985245591883825,-0.11406550505359925,-0.5178111937198239,2.0734910122948906,-0.6109640738611991
2019-08-03 02:41:13.515259,-0.7779942335800563,1.1946377659343257,0.8589492492772446,-166.12909933370022,33.828888602812995,-36.40923268495489,0.06905869835086026,0.9939018030663779,-0.16014417558085,-0.11924989750669468,1.0820273518354258,1.4756203072706324,-0.9430579890805895,-0.07223041915394357,0.4284263797288228,-10.182660881169499,6.0000771898734815,3.124906170776249,-0.25810944115516987,-1.081693795787172,0.6715998063686867,55.663938270733645,101.48297983683699,-27.738538948857045,-0.11214295107433603,-0.9982987207338977,-0.11544790856708291,-0.49031384415292434,2.029155307313458,-0.6793463489599515
2019-08-03 02:41:13.525259,-0.7357433887819802,1.2291182725836114,0.8437014620675787,-166.6914586808883,31.130061098094906,-46.22683938671251,0.06945575965902256,0.9932578747603326,-0.15995319569978864,0.14768179391200917,1.0241174762759648,1.6187667626564908,-0.9525769896150926,-0.07838643769530747,0.4369273995172965,-11.506481118959504,5.5488963152092605,2.7481645292071577,-0.2986011507781085,-1.0776422917141188,0.7246331565520446,60.05472792512774,106.0982676079147,-28.248374261898817,-0.11100031687418223,-0.998088323410753,-0.11651563543402929,-0.46617907462310604,1.9515051590152765,-0.7416574734981627
2019-08-03 02:41:13.535259,-0.6868274377418517,1.175978844465288,0.7947362299823189,-171.44270408656385,33.64714016480366,-58.37655643035372,0.07333417121996785,0.9931978059732823,-0.16177044062076373,0.3025966097958473,0.8366365744989807,1.8177293845847924,-0.957564666774782,-0.07941369877552724,0.4490159402556513,-11.721704825118408,5.400356661054545,2.8033312195236215,-0.3885887579787633,-1.0218317850292946,0.9316048273783549,69.95996778023948,78.61859560157451,-25.669956353624315,-0.11000696149392425,-0.9977286058383142,-0.11632505342488252,-0.48716253821447175,1.9036684650775888,-0.7174181769731109
2019-08-03 02:41:13.545259,-0.683270097843794,1.149827011459391,0.7708370862327084,-174.8529744180758,36.968692013100544,-65.73991687295543,0.07232770473675963,0.9908028027040032,-0.1634502593473279,0.3913501522259443,0.6053719138087521,1.9723412017609039,-0.9587013629998238,-0.08869945769436696,0.4538478257810515,-12.090709132603028,5.229846337429,2.6315840141979576,-0.32979437238530157,-1.0475755071180026,0.9738970222891419,72.03541549560555,60.28572543215072,-25.57938562550924,-0.10995995843516199,-0.9970878583522069,-0.11393185135086523,-0.5949731513938145,1.9539186080389932,-0.5207544848590403
2019-08-03 02:41:13.555259,-0.7263055052471135,1.1622330254036348,0.7346142452316091,-175.635580438933,43.251678573298676,-71.97504605407767,0.0739250316090684,0.9948992930897035,-0.16402954256326452,0.49748521861178385,0.42165535565815565,2.0234269531232116,-0.9606947187130405,-0.09412684805829294,0.45443098672361126,-13.545034236431336,4.781364558596782,2.354868063590292,-0.297498683182966,-1.0480735940340908,0.9893246612755704,75.41295193850416,48.70979897772083,-25.52752000852429,-0.11197188522278242,-0.9965735318019016,-0.11161072818530131,-0.7245224348868122,1.865793460897149,-0.4609979612140373
2019-08-03 02:41:13.565259,-0.7913488590520308,1.1782719692601278,0.7056691205337329,-177.04451271153835,51.28930757284896,-81.81617161534923,0.08307747934072454,0.9958451989502415,-0.15980700002942091,0.5446967012585672,0.39883235863342253,2.1287072892014898,-0.951030245416784,-0.10415723820222555,0.4473554188107903,-13.705722635306081,4.262476529744093,1.7210603482808755,-0.28240620821388795,-1.0514310961792266,0.9947434688526697,79.64964550464731,42.4773220751992,-25.78172506134534,-0.115999239860772,-0.9973996038356863,-0.11462496156316641,-0.6996251472123828,1.1984224996695465,-1.1519569678270791
2019-08-03 02:41:13.575259,-0.8168076020672789,1.1626678581089882,0.6861587244895071,-178.73254173890692,53.31231451493512,-88.2475697216385,0.08840986196142885,0.9949634706805144,-0.1571315745549668,0.6373994250555527,0.2896053445456856,2.0635463855428022,-0.9562143727800434,-0.11279558477292759,0.45138778467245955,-13.981643466507123,4.382384295174569,1.2980970334760205,-0.27128875299674304,-1.0647255185127533,1.0058235010218848,86.61406246982669,33.922714646896175,-26.314396438297454,-0.11352696763294032,-0.9992678918319428,-0.1149918837046722,-0.7012121866170457,1.0975786561529763,-1.3716080142825426
2019-08-03 02:41:13.585259,-0.821736616544967,1.1415088203384902,0.6636916128431495,-180.42658387546678,52.991842399124586,-91.36613528814325,0.08588003833663099,0.9974407471577896,-0.157725628587483,0.7413452122134467,0.3532048271838806,1.940817598326044,-0.9580120403904662,-0.11352660712082142,0.4495657862066328,-12.948587169553122,5.014325802677873,0.8977031043494629,-0.2684013881824488,-1.0736859808618004,1.0070457503855152,89.30603408192695,32.05617163620965,-26.74465072953274,-0.11446162337810128,-0.9983783420915361,-0.11395947180152237,-0.7041492479876894,1.0212425366716393,-1.7617438564473589
2019-08-03 02:41:13.595259,-0.8338424411993528,1.1329220857158175,0.6354499072196561,-182.04377409004067,52.94117597651139,-94.92242077556477,0.08178163294139097,0.9980273087232554,-0.16019322949951578,0.8183428001366884,0.7362722954104313,1.8129988584968446,-0.9389241833308709,-0.11730708885833306,0.44832387269330515,-10.302045330758284,4.408444263071645,0.3208635729913328,-0.2699510293224963,-1.0835267599786054,1.017840326935239,90.99702045858758,32.13192807427727,-27.109578778820627,-0.11425218359440319,-0.9994760769501378,-0.11395762061846929,-0.7334597341037309,1.0053285351869408,-1.993068554161469
2019-08-03 02:41:13.605259,-0.8566739129884776,1.1079847208904459,0.5637243706402192,-184.14162558323306,51.540980546501245,-104.63768211215854,0.0825290485295329,0.9931849960183695,-0.1639653059581071,0.9528720378909894,1.066627003107529,1.4939307164907094,-0.9449489186656231,-0.10647759163117408,0.4555934837655818,-9.760708442040551,4.008131669527664,0.1771663102971606,-0.27480734168495674,-1.1077087111387414,1.0475348614453528,95.33705219308965,31.040694663982496,-27.83099480146235,-0.11501701339257901,-0.9967636626015308,-0.11170439691207404,-0.758812195180245,0.9679737875072465,-2.2581385851642906
2019-08-03 02:41:13.615259,-0.8975445335653068,1.0137083809088265,0.5348605840145718,-185.34325109935764,48.798376018382925,-115.07965110100986,0.07893226259712416,0.9939559834379211,-0.16648877001021684,1.103227281129781,1.1363568627967136,1.2603127887758498,-0.9351440689257687,-0.0948593831900593,0.4388707175558282,-8.036673116322019,4.509659911278076,-0.15500290944231526,-0.28613237039694794,-1.1733971716952298,1.0711076951976803,103.44037762631432,31.155459793161146,-29.881340652657872,-0.11784457099433548,-0.9971361512644359,-0.1114641760803539,-0.7551645557402129,0.9107410585910846,-2.5337968550935956
2019-08-03 02:41:13.625259,-0.9088324141963366,0.9869245686247345,0.5316888710916493,-186.26266482208862,48.52465476318661,-117.33180700965663,0.08170781563369435,0.9944201775612627,-0.16643190829444948,1.0697528086264227,1.140675475095576,1.1359094425347334,-0.9148277440864154,-0.08867474707021773,0.44559343972898413,-10.17143552320075,2.4149587422869727,-1.495141812783288,-0.3653092893040745,-1.1734934628457425,1.157845746339015,126.13984663962603,37.83840861989025,-31.550229825058793,-0.12060893309645042,-1.001968195591626,-0.1135304158432201,-0.7009710073198951,0.8535190936247966,-2.8056869823162347
2019-08-03 02:41:13.635259,-0.947958634687803,0.9732279668379655,0.5326869669401635,-184.9504537419913,46.308320438564984,-121.3166882206861,0.08602949896763962,0.9922899464475204,-0.16466544023151367,1.0762065781752654,0.9528391088826971,0.9727969558914195,-0.9110681889484555,-0.08714068673415974,0.4480127789120956,-10.481162407284685,2.409199523167927,-1.7358498542592495,-0.4432510441190341,-1.1663286236488564,1.186568071917176,136.53667344670973,39.66818551545032,-31.530104129794026,-0.12014779783120616,-1.0063375908441772,-0.11460353020340547,-0.5996439453954003,0.8011003087793266,-3.0919948541788838
2019-08-03 02:41:13.645259,-1.0236379645861606,0.9385372255756936,0.5327026373124027,-180.9663276080329,40.61806504007529,-130.94275128879957,0.08458873249638904,0.9887531506345653,-0.16849050449771372,1.0635132102933005,1.1126075440479049,0.7638117778020898,-0.9174440320117652,-0.08438688161810516,0.43964097447946066,-10.471075208187884,3.360530328973207,-1.6928823192340845,-0.5094092807482123,-1.175666887175841,1.2085811410262897,144.288901748066,39.64482600320792,-31.952427632627643,-0.12002823443439868,-1.008409251551783,-0.11655463157107561,-0.5893068084155118,0.6817820020526741,-3.3284722860916856
2019-08-03 02:41:13.655259,-1.0307513689346928,0.9448623739786978,0.5439464489528677,-177.55238954821226,37.085114691253644,-135.05038338169854,0.08279979789004935,0.9887740895138515,-0.16822879207325134,0.9267280524465384,1.1727891322242323,0.6022323191523624,-0.9278524931910662,-0.09439998971684828,0.421566571870342,-11.151804495095051,4.153565409279371,-1.4579213378374254,-0.5359077795836218,-1.1940146015859914,1.2236556437056763,146.34074753170316,38.916272200133285,-31.93089241749244,-0.11662785383341173,-1.0085355853809213,-0.11736923748143671,-0.4758747692449302,0.47929728285089246,-3.6778944415764014
2019-08-03 02:41:13.665259,-1.0116549862939392,0.9456314472544963,0.5570861477146976,-173.73183161106485,32.23946072943903,-140.22051663515742,0.08182916608927236,0.9916391969575497,-0.1653607640055517,0.971881372156697,1.4104205351732992,0.4955646725484355,-0.9363661896210189,-0.10541116083026525,0.4256665997499988,-12.129457955132617,4.195777777337908,-0.8069457853731983,-0.5534106026861216,-1.2073395511292933,1.2344004243252935,146.54799232777776,38.83130995261337,-32.16466425664952,-0.10637766133841135,-1.0081209266827431,-0.11414709557395475,-0.13543462574757803,0.28851154641604676,-4.18152736355443
2019-08-03 02:41:13.675259,-0.9785947638088643,0.9337469470347871,0.5597402295229724,-170.29731103543327,26.667981883584556,-146.06150363732425,0.07950382170888828,0.993849663035559,-0.1655077582925018,1.0133785893032552,1.4373285130840103,0.30092023196495676,-0.9357788054626455,-0.1109196867607134,0.4364528401100245,-9.923968592750839,3.4419644314574236,0.1331496957044926,-0.5738248424963079,-1.2231533487634791,1.246320306333259,147.82992528769137,38.41568830613637,-32.3205828852054,-0.10126880288830442,-1.0072961296010958,-0.11181889780306149,-0.12678249743121714,0.24620393833767804,-4.333513062956899
2019-08-03 02:41:13.685259,-0.9353375309922426,0.9077640730903004,0.5472531258003012,-167.8538848687327,21.04609550497176,-152.0406941177573,0.08062630988233332,0.9931359619155065,-0.16465411641183816,0.9198872098193516,1.4692997586762722,0.4125613418340826,-0.9430291084242932,-0.10479866119550955,0.4306295051518503,-8.278845840622893,2.8718388648917608,0.5923392213994363,-0.5893615165265909,-1.276567241751024,1.2706410208023406,152.4896405359634,34.00854614433456,-30.841484288176936,-0.10115060617497121,-1.0060392541273628,-0.1116178267658046,-0.21481810959016528,0.30893361300563554,-4.395845748895472
2019-08-03 02:41:13.695259,-0.896476377722783,0.8588387708188736,0.5290930766458947,-165.1728181648253,14.327708114508763,-162.32131982848028,0.07833820625377297,0.9905149205658694,-0.16426896909766314,0.8282772462519647,1.4613771955182462,0.43507619668710457,-0.9416146891434717,-0.10926391476188894,0.43286530650802213,-7.694427854247893,2.6284896901210217,0.5975653812796686,-0.5847110397260692,-1.338605525214857,1.2706070483139262,159.98551762768184,26.227152405014994,-27.59355864617858,-0.10288369429490071,-1.0042144913109887,-0.11349314907931159,-0.19911246057738774,0.43983738440157183,-4.515398455115807
2019-08-03 02:41:13.705259,-0.8755414070594167,0.8489828522217118,0.510039536883784,-161.07813503283052,12.48941331404989,-175.3583125090021,0.07937129092221806,0.9891219207789929,-0.16758300116927496,0.7080743839746192,1.5924720982670577,0.41144689737423124,-0.9558079839626188,-0.12892346758618084,0.41725645278755713,-6.189502934949931,1.9226563107983252,0.8533874888257463,-0.5880918206553324,-1.3594671304541368,1.1710079947328522,171.97555085578927,21.75133628097887,-21.714032885153596,-0.09690770330213261,-1.0008155270217776,-0.11470263458159587,-0.38609442895527085,0.7397116547924518,-3.9927842810807825
2019-08-03 02:41:13.715259,-0.874737605553395,0.8344344565384585,0.4997264686654042,-158.69603477388966,13.242893904873325,-180.79495643133538,0.07824240241299167,0.9905952371218285,-0.166669195971669,0.639318094648488,1.5333352427385514,0.5978200578731517,-0.9429803746788964,-0.10119381558995129,0.4225334911708153,-6.310054817330942,0.9331683689854042,0.7414699313114864,-0.635711821619948,-1.3891535919615152,1.0868502245137581,183.5348858458695,24.546287478368907,-14.633994519296982,-0.09222749952655147,-0.9989114657065847,-0.1146272127733822,-0.48333248051427846,0.9154793558344146,-3.6085245332371003
2019-08-03 02:41:13.725259,-0.875461377331061,0.8125887079630509,0.4930756604616765,-157.7638413875182,13.959702010327325,-181.09654472025244,0.07809276565299472,0.9917525823134198,-0.16499954095986685,0.703074239441175,1.4663786377316381,0.7066012697233036,-0.936668006721179,-0.095958583340321,0.4322846714618036,-4.593919019651703,0.018336386241506852,0.20788428901373096,-0.6963356632145259,-1.4186975228360512,1.021216873942871,193.60754453358217,28.821985419492275,-5.837246664130872,-0.09316611503571143,-0.9987236212060029,-0.11379112342849912,-0.4017623629041665,0.886734757824551,-3.6395456629946175
2019-08-03 02:41:13.735259,-0.8639161970087101,0.7885026215295334,0.48349999372374897,-157.28649986349131,13.287502742705847,-180.61790687773038,0.07743566411903668,0.9927128531081825,-0.1666482382519336,0.6410144951748523,1.374899861549525,0.7594206143070646,-0.938183691834503,-0.10608155198433386,0.4300443538937172,-4.525885046166409,-0.5741637197243716,-0.8835320264667138,-0.6933364365039902,-1.3732763908419057,0.9319241114002353,204.4701767322856,32.89117853109781,5.3958467236667325,-0.09386964568838074,-0.9970431714902912,-0.11175278715152023,-0.4520166653796236,0.8194160356595843,-3.4150395885598543
2019-08-03 02:41:13.745259,-0.8971720277362017,0.7046988252472254,0.47911061767950724,-155.04381362869262,18.743052464707763,-194.62930638968268,0.07557249087365535,0.9938368040520643,-0.1665159614499911,0.47566148888116283,1.1593155002979723,0.9208482253919814,-0.9448891346532765,-0.11968823125306507,0.43706663228169756,-7.0262212068399705,0.0653156725422686,-0.9738068939267811,-0.7090842821776036,-1.328092447726091,0.891511323307493,215.02900325228256,38.639644986760906,19.124359586762214,-0.09322332227480132,-0.9942194839741101,-0.10949891832532212,-0.6197997050734974,0.7922571965679702,-2.9606659509714155
2019-08-03 02:41:13.755259,-0.9147040576967614,0.6587649922507974,0.45554527848232856,-150.76043623132912,23.31559153883967,-205.37907092074607,0.07828621494693441,0.9934729852476921,-0.16592738211345995,0.4302313034654413,1.059878310124639,1.2712308870541837,-0.9419684898458441,-0.1243961982007868,0.4422982589681968,-7.4635319554944735,0.5677974615909885,-1.0522485889005375,-0.7266618470379456,-1.3203482778509519,0.8716393432481472,217.82646201804425,41.297563652662944,25.113656988540715,-0.09321467879753438,-0.9926126227579026,-0.1084560119265042,-0.7135396365925019,0.8010391102476081,-2.6924482514643655
2019-08-03 02:41:13.765259,-0.9065070844214043,0.6386237782082759,0.44015154450860977,-147.84321828869636,24.59304493943081,-209.10600974813622,0.0806519130992373,0.9924181156554638,-0.16535355549597358,0.47793443147980674,1.0300679540987001,1.3859316940054234,-0.933483330877932,-0.12723525619842257,0.435839264604846,-6.409133623321257,-0.07189021776586044,-1.2780638708631842,-0.7790785212188873,-1.2863525252662305,0.820585225787746,221.57447087416062,45.85313651091527,37.915454623944356,-0.09377590711643949,-0.9923022638587794,-0.1085685206140238,-0.7405897678023771,0.8276108620802695,-2.602001630685023
2019-08-03 02:41:13.775259,-0.8861826303448178,0.5886949870026672,0.4389598310696711,-144.9637924244382,23.371318097031132,-216.22440086035073,0.08025663735103764,0.9929825756411048,-0.16672124594543689,0.3862966028896781,0.8763154887542487,1.5301678548085937,-0.9272780280565555,-0.12296210859342989,0.42040304654637434,-5.303407285082043,-1.2642949465970141,-1.4166965836227976,-0.8139861592621296,-1.266104105006078,0.7942393695266559,224.1814573783524,48.020264680753066,44.43356753291599,-0.094751271567303,-0.992998475834589,-0.10948984975269362,-0.7379585820224773,0.8422892723168639,-2.6218669919038926
2019-08-03 02:41:13.785259,-0.8716343762377317,0.5606984611841687,0.4378951063685193,-143.16152498103466,21.924733660959006,-220.9437061049901,0.07663874236964181,0.9934192896637759,-0.1692972800921204,0.08208278381722034,0.7423440763267358,1.9765101294718657,-0.9364663856085477,-0.09942382073437042,0.4264173752395091,-4.9577253918303095,-1.6530129167783456,-1.4267338791179303,-0.8370762938193949,-1.2430701661060237,0.762944962008414,228.70978964307554,50.97872713634031,66.74834519881296,-0.09622021579142646,-0.9947190688824419,-0.11122946061409907,-0.7354684583879789,0.8482777671453066,-2.716109606303432
2019-08-03 02:41:13.795259,-0.871649668993453,0.5625463137217485,0.43591575988962206,-142.96015253452615,21.799287879234207,-221.60162478308473,0.07472464895180443,0.9907964847280458,-0.1695247908403205,-0.061538817276263695,1.0324532652229346,2.4784087831794213,-0.9422797060364484,-0.08882579680144201,0.4320818747997671,-4.640035360122396,-1.870317535538083,-1.4316964461840218,-0.824190047080774,-1.2139837527432442,0.7426618813337653,228.15726647792508,50.05122519594017,71.1696059317373,-0.09735936865308276,-0.9963441410736452,-0.11249466343040221,-0.7907395194048386,0.7298548834700814,-2.7298431945084727
2019-08-03 02:41:13.805259,-0.8693426630005635,0.5647975421791057,0.43317562398673215,-142.9626090392459,21.37347139609605,-220.935235417266,0.08475703104913468,0.9924266337462173,-0.16356316255642625,-0.06717615105484798,0.8681647247087425,3.050292428178818,-0.9345846011940546,-0.09734805158858872,0.4290452722518966,-4.829498558856166,-2.142220219376366,-1.559424165525455,-0.8260858370085392,-1.0953498390631402,0.7119894892097477,229.85375828603358,48.805928265347006,88.07054496815934,-0.09824732951074784,-0.9979011659436715,-0.11332549036431218,-0.9269319842921393,0.49600252094035263,-2.6343890490724142
2019-08-03 02:41:13.815259,-0.8479575344392213,0.5376173652184961,0.42993015848657384,-141.77006596961485,19.03903917130159,-221.74235617291487,0.08915994790301002,0.9923227919441323,-0.1633780370344687,0.0384960093553673,0.6710435377360354,3.2804492665717073,-0.9197671776410616,-0.11705198818051402,0.42940887000939265,-6.186897465850098,-2.9093443119087516,-2.155981595016106,-0.8638185737622396,-1.0065920645744628,0.6991299375600145,229.10803739948062,45.711865186321944,101.66178864820664,-0.09908068324661218,-0.9995329520504347,-0.11397021028087478,-1.092887443170043,0.2249697559436815,-2.4931571658846345
2019-08-03 02:41:13.825259,-0.8044872984021049,0.4723405509000078,0.43937519314460793,-139.15663959401286,13.888692653106006,-225.27972661086207,0.09108414197444678,0.9926917150795497,-0.16594824632373592,0.11714469555990364,0.5899383869146595,3.5295803564422483,-0.9255462296903457,-0.12328616904226909,0.430380322043782,-7.42376976186096,-2.5812520446034735,-2.0310833720875134,-0.9409798326523972,-0.9381817627416154,0.6633351759982151,225.32675444628745,36.99756244368945,112.54749042856709,-0.1006346571213253,-1.0029829857327237,-0.11734036404261362,-1.1847970582612242,0.15156806136189363,-2.49168310227047
2019-08-03 02:41:13.835259,-0.7696187144488835,0.4036369637852146,0.4458542001140222,-135.84899622687772,8.219095373664675,-227.67242587877047,0.09471686312752887,0.9899790601423811,-0.1658761993801643,0.09500216669360498,0.5961392746318175,3.517227483591826,-0.931112164395888,-0.11274683749815234,0.4337864945288844,-3.873413956487552,-2.144854403405427,-1.1168084505813356,-0.9737299752136602,-0.9088662008263536,0.6528308094322365,222.73918004207582,29.409763110969127,117.76833632610577,-0.1015058769213289,-1.0060181822367382,-0.12071355652395381,-1.1557537429519853,0.1578038129610381,-2.528266291179695
2019-08-03 02:41:13.845259,-0.7323489152869742,0.27594336095375505,0.42472749948480576,-133.21316790345819,3.3602370019258774,-228.2131906808307,0.0923023575619893,0.9876636175972182,-0.16916582396975302,0.05790398317441322,0.9997497958638651,3.4337387024168127,-0.9242023000427585,-0.12722472461844742,0.439421123498562,-1.0914548224235878,-2.960463135953912,-1.0134541572524158,-0.9652617024775834,-0.8922740920192779,0.673615013092979,218.98218401885208,18.47742413560915,123.10028697515985,-0.09832513403106906,-1.0031098817272126,-0.1168423639443844,-1.011578595962358,-0.19270253609741397,-2.231785850964079
2019-08-03 02:41:13.855259,-0.6812213131664345,0.19352241316646868,0.38915115912219633,-132.38752591527913,0.00010264607321496325,-227.472013781657,0.09201553894644557,0.9867905650057465,-0.16842969067321087,0.06198372904530508,1.2071381511504733,3.3585153349319583,-0.917209242208402,-0.14158962979414727,0.4328277102168611,-2.865362318538561,-3.2052128158640616,-1.2427029184960445,-0.9096827819273933,-0.8317441997986996,0.654083118321117,212.22301264707292,-3.986082551377898,132.8705813277363,-0.09100344477891924,-1.001495540298532,-0.12074628407818654,-0.7458380885388436,-0.36957517375871474,-1.662842365953542
2019-08-03 02:41:13.865259,-0.6372168988854962,0.17709780682132398,0.3692754258119838,-126.50788219876041,-1.4228648192279305,-225.36415197890045,0.09310942782549671,0.9893779148451521,-0.1655852464169427,0.03591134114161063,0.906546144012049,3.21590677835964,-0.9202075968739903,-0.11898291634739787,0.42523420795860906,-2.4333903487831945,-3.006660459024941,-1.1425907475008215,-0.8694029236623754,-0.7618391500773473,0.6363286686785159,208.31163352299114,-20.48487186340965,139.71477315105432,-0.09428446017045859,-1.0034543215255074,-0.1195786155102099,-0.10885278096784594,0.5009940943136021,-1.0611384821987373
2019-08-03 02:41:13.875259,-0.5969216813243399,0.16718052736440928,0.35923706250693643,-121.68665434796246,-1.7104983442628967,-224.2687617840822,0.095098813652449,0.9897792159812017,-0.16576481195171072,-0.03670606857236573,0.8275832441458966,3.0211710743111917,-0.9155399957341936,-0.1383402039180226,0.42162583397217446,1.1453754399594225,-3.2264318358796054,-0.6083579431272087,-0.8820540030419807,-0.7558406146993968,0.6278091841856653,207.24145193851967,-25.36241123783001,141.23309870549872,-0.09601916608710828,-1.005308173828415,-0.1190098866944338,0.756083033568097,1.0140215171642664,-0.9114861065859173
2019-08-03 02:41:13.885259,-0.5098285564228741,0.07512871648978789,0.35059875720561734,-117.87711946263953,-0.39377319250339254,-223.50761377441148,0.09359362324608833,0.9936570237505248,-0.16207070524309894,0.0031508250549175717,0.8900276359447233,2.910722902504814,-0.9140519499289502,-0.17519805733494206,0.40977329437418636,-1.9363525691694363,-3.93365542123714,-0.31689103213531383,-0.9464308536645882,-0.8197852509856518,0.6071170372040349,213.78930504680935,-11.84155842493273,131.888552032727,-0.10173345770670446,-1.0054312881570946,-0.11631344243783566,1.0099605098120497,1.1930832889648504,-0.9160933596951731
2019-08-03 02:41:13.895259,-0.49283980399964117,0.038958916289944544,0.34705463809350495,-117.22210922445386,1.337861568485865,-223.73342749511696,0.09133952839105815,0.996064150065989,-0.16256335725228654,0.08354493107526344,0.9482496891421367,2.7301788961553672,-0.9233915388073903,-0.1725372200941188,0.4210213322786976,-1.2168599850610768,-4.46531300730072,0.12018642095826133,-0.903860872085402,-0.7722198618065244,0.6099468823611147,208.95828471738832,-20.68580321709738,137.67934039216848,-0.10044451571035418,-1.006366145771822,-0.11429390350754348,1.2498083969202924,1.41488540861382,-0.9808214142656845
2019-08-03 02:41:13.905259,-0.47965934636293633,0.003061637397960757,0.34549949499044047,-115.32382122476147,3.8310997895764114,-223.80461883688147,0.0905883233406583,0.995328323831671,-0.16814552860600016,0.0797419532170043,0.8450733013170103,2.579561087955376,-0.9261138297346639,-0.16331086337269557,0.4307424849241439,1.1646596737586807,-4.034138294415019,0.3860950685910411,-0.7593602129115697,-0.6581308566019985,0.6486581882736344,195.4547074638113,-49.170360393107664,156.03027335172467,-0.10032375993474264,-1.0041537054598744,-0.11596491192832668,1.3724063719660342,1.3715259303682878,-1.1286967268652264
2019-08-03 02:41:13.915259,-0.4598741954174146,-0.07002336599126968,0.3599556819507312,-109.34092954705618,12.085536222821267,-223.97223788548527,0.09277639140652146,0.9946678290363777,-0.16866399015827277,-0.1108472140235144,0.6024547327696868,2.5266240432755964,-0.923135572517138,-0.14752999555951676,0.4330874145268686,4.7684679938497005,-4.710324637820517,0.47997515184113615,-0.7070965564143856,-0.6658220294733561,0.6890181940965873,192.79932383190894,-54.67732154841602,159.36899790369785,-0.09327134983093016,-1.0057737342102235,-0.11398212855702307,1.5724598031880446,1.2495991397840793,-1.2930882508911359
2019-08-03 02:41:13.925259,-0.4472966879603882,-0.12470454225832298,0.35313741038554586,-100.17996742794337,18.767822101610516,-223.7379953123675,0.0962898796189548,0.9931578556981115,-0.1669859802555823,-0.25162948277698505,0.4745233229920861,2.4708349613558265,-0.9264956603910529,-0.11748770886948734,0.438750392112237,8.521568591963964,-7.049562762555005,0.627415940937894,-0.6012084963270362,-0.5665350395914132,0.6012502866297763,193.05729435273327,-57.60487240043282,162.85671589553348,-0.09417038827939785,-1.003164433105502,-0.11506798691136355,1.680428097175269,1.2141172436425538,-1.345529033462184
2019-08-03 02:41:13.935259,-0.4177797684329244,-0.12327322452986524,0.32063247613745743,-92.59864432573715,19.317168334900764,-223.5009612708526,0.09990733270285489,0.9888818650417656,-0.16658677005634315,-0.3324206010820545,0.4660988716579512,2.4247067686733286,-0.9219446138469768,-0.1075942298652707,0.4342860462790212,8.211224392412364,-7.881977504823,0.6601241157856711,-0.5796935467438037,-0.5574904554669988,0.5824093141352455,194.55622114244358,-62.54682587771416,161.94581506550108,-0.09672289731271971,-1.0012704564856072,-0.11407804385563981,1.7105765350858968,1.2862155901997792,-1.4540991122362645
2019-08-03 02:41:13.945259,-0.38156483588589096,-0.11966276851084372,0.2896708337658335,-86.91034319628316,18.749312512035182,-223.73997813504147,0.09676848953890586,0.9847006670569297,-0.16395780913392302,-0.4640294101955064,0.5875371145236365,2.25153146098396,-0.918079060623134,-0.1075796340648073,0.42898531276099444,7.920171810907229,-9.004567029169694,1.2027613411944387,-0.5049904945029524,-0.2604818837862978,0.5143969039954265,201.2188048093797,-21.642988704414964,176.24793660677867,-0.09748281709583624,-1.0023696135087634,-0.1107557994790284,1.7059178983323626,1.395785411336628,-1.6282577976886095
2019-08-03 02:41:13.955259,-0.3720245658674866,-0.11698360709421651,0.284530828722057,-85.47330027645798,18.111178978651616,-223.40626453677058,0.09064884392549787,0.9853772545074357,-0.16202268280244453,-0.3735136273597268,0.8271235119398506,2.1925939610370175,-0.9206131648509753,-0.10814844551718923,0.4289803443690836,7.265625615902164,-9.60997291750147,1.937749764728359,-0.5403837927820103,-0.3845692545953174,0.5495692292040847,198.73830686017078,-35.88475508316386,171.16527901290658,-0.09883566684332475,-1.0037335751545018,-0.11243106385145206,1.7282022364179361,1.36557241957888,-1.6464394774770261
2019-08-03 02:41:13.965259,-0.379025572435533,-0.11470129099212306,0.28812266210838605,-85.8160186950812,17.772200340643117,-222.85136533767198,0.0915641377467097,0.9883377720405041,-0.16156694895985937,-0.2838880713672987,0.43954432607205046,2.2450122697629586,-0.921429634503151,-0.10839467381153817,0.4337637443579777,7.188081556971177,-9.792906224503,2.4777079535595328,-0.5346768970719554,-0.20661461594589556,0.5155894843351765,185.25275560519498,-3.3003019646334764,180.81129260586877,-0.09965872132605813,-1.003679445945905,-0.11429279263721223,1.7284515972999184,1.357912593560108,-1.6814578243733365
2019-08-03 02:41:13.975259,-0.32899792507503134,-0.11110063971898573,0.22991242971504444,-80.58802208868296,17.92501595596879,-224.77146038116337,0.09378235783127935,0.9890385597351082,-0.16256175732755157,-0.14966352541249064,0.18012566314614062,2.4267655940055306,-0.9181305050984946,-0.12309695043791165,0.44842671623652586,7.616170492693151,-9.694680469132882,3.1760491570177174,-0.5286431429929811,-0.14350452433823552,0.5058168495452501,181.82488497230116,7.759293111857334,183.92954055364726,-0.09855299601282379,-1.0020604748605155,-0.11144470124293092,1.7214361779915384,1.5136308848296844,-1.879834861542487
2019-08-03 02:41:13.985259,-0.2518331328730257,-0.10997662667922849,0.1506192327995084,-72.76672546616645,18.467155227388357,-227.89248043694494,0.09100408244664379,0.9930948082586607,-0.1607411348135201,-0.07107679965019398,-0.14068108715665076,2.6689842321031856,-0.9095649015950951,-0.13961292835645267,0.4571537353877989,7.910086870407369,-9.10091377474821,3.8495776275475526,-0.5315430364641782,-0.19543207766763546,0.518021234618184,185.2907288701325,-1.3642102448925308,181.12869784885947,-0.09664795187588794,-1.0003919151335119,-0.10785447548198036,1.7922145692384965,1.6380127698371658,-2.1270738914134903
2019-08-03 02:41:13.995259,-0.2384805159448217,-0.12676692038594933,0.1589834893118431,-70.98416799024338,19.62940374584393,-229.36369368172748,0.09067018023492426,0.9905497088051761,-0.16583951594499818,0.14567131469984515,-0.14312328780592815,2.865576317379308,-0.9036254832593488,-0.13024694314170066,0.45657355279603506,8.402370617018423,-8.36230982136611,3.950436909265658,-0.5370242936639398,-0.25189939808030914,0.5239446250325217,188.81451910819248,-12.03091872258704,178.5714901409234,-0.09740819338224381,-1.0005345787751894,-0.10892157593082946,1.6160814588718453,1.4338466142142388,-2.4307164301008726
2019-08-03 02:41:14.005259,-0.19917607978283053,-0.1613826102171169,0.1638428001791798,-64.75937674733203,22.535613248611714,-233.5891030549371,0.09235496096965234,0.9904806576671938,-0.16238958477997548,0.11328705130050953,-0.1770494994038196,3.0470231363101576,-0.8957833900986152,-0.09765212488191294,0.46563311890443826,11.167770407245962,-8.214991187512314,3.3027609964688907,-0.5387289271318135,-0.21018568767841772,0.498023141724104,186.1270419632146,-7.696170330079508,181.78305310444685,-0.09731566252578491,-1.0036817324947394,-0.1085411306814139,1.6690142692475687,1.538389587632772,-2.3489614334196123
2019-08-03 02:41:14.015259,-0.1824925662272998,-0.18749251508218362,0.17910402617913762,-59.456038530013764,25.20996622979957,-236.91470497759877,0.08892430561765516,0.9870967225905891,-0.16752824602812724,0.20677350386058946,-0.42489254838559676,3.5276148666136264,-0.8859015508957396,-0.07072323332095012,0.4663015438492071,12.708797685714806,-8.146110270820557,1.6417233330544263,-0.5147861368984463,-0.13838431396762868,0.44737392924156194,180.70545843097912,-5.323583527781248,185.70060397525248,-0.0959893865410199,-1.004675307614716,-0.10814204826143813,1.623319432887307,1.5452718229706341,-2.235763665339033
2019-08-03 02:41:14.025259,-0.16046579318999762,-0.21993142138925492,0.19971609666527243,-50.11669393586404,26.17846038464729,-241.5419611828434,0.09925832524726014,0.9864162860008704,-0.16749262891655578,0.229595510812626,-0.9333268285234947,3.9203041438535178,-0.8889854604655772,-0.08125116548303583,0.4592243852769359,8.328423811836393,-7.434458072938939,0.318038633963567,-0.49162336554034497,-0.05233000582907036,0.4023961950971299,175.5550754027906,-7.03695660177455,188.346687712071,-0.09265643341100763,-1.0028938049632141,-0.10966636156543576,1.4164906347419592,1.666273377193667,-2.485455654041232
2019-08-03 02:41:14.035259,-0.13474726672672455,-0.22174186233334894,0.22308976629732266,-40.742038828628615,24.358156358202386,-245.05577837591926,0.10150881629800917,0.9894216286109052,-0.16621470591416887,0.387492474408593,-1.074637109460916,4.074167153913303,-0.8887719754653927,-0.07278024969001134,0.47045631627774626,5.658779521435592,-6.306896144413363,-0.19194526889638297,-0.47876860362475204,-0.00724678647163942,0.37744623131830596,172.38941840522367,-9.59284188513982,189.1436252756935,-0.08913797102128794,-1.0002237827986193,-0.1118280577238522,1.206319650175679,1.919396679149906,-2.799822326884204
2019-08-03 02:41:14.045259,-0.10897995114359596,-0.23356722803996613,0.24501167492794368,-29.928464985211527,20.077725877283058,-248.06907450121074,0.10031081560951359,0.9891667737054217,-0.17052408061458815,0.3121147284919818,-0.9523211114991124,4.396799236472774,-0.8808135035433572,-0.045817746466039255,0.48023751180455804,6.674905550478643,-5.270357882766507,-0.9275501599117983,-0.44869875625160743,0.08191640218303409,0.35002900536985926,164.30733760815446,-16.16689074383334,189.89925726572014,-0.08801927218215148,-0.9979140080699208,-0.11209349519210884,1.1050094154639125,1.9870185733357146,-2.6560029624555357
2019-08-03 02:41:14.055259,-0.060131853423317394,-0.27487851793779755,0.25945816132277755,-21.973612315532293,13.047587076913125,-250.1261714392964,0.10721561042614237,0.9871141241487037,-0.16753302506602313,0.3392161962741061,-0.9507949917653824,4.539725908337978,-0.8739768534090355,-0.03546562376020201,0.4835468083768947,8.939132545233477,-5.197821299271007,-1.0645291897865174,-0.4234292584335257,0.1194260979259525,0.3392851982730453,154.3043880168796,-24.455911750254305,189.14728554881108,-0.08867627525319088,-0.9961864374818958,-0.11099493828392278,1.0810671980278448,1.921946426985986,-2.258456734377404
2019-08-03 02:41:14.065259,-0.008324183950539812,-0.28925763031437285,0.2773476635903591,-16.17834176208681,7.529886476493175,-251.77758648813406,0.104130588552862,0.9856140800837303,-0.16897662142082903,0.3097140151826516,-0.9280043730921612,4.410588010824612,-0.8669159662204803,-0.043129840728309596,0.4871983514098227,9.298893141053618,-4.6266336352788455,-1.1791638321740887,-0.3825654405126779,0.08039722417402106,0.36137878457326406,143.6244256501582,-32.4972326361103,188.34220101469316,-0.09035762131865266,-0.9954317332853124,-0.10922830957547529,1.1083750266137002,1.8185359185341234,-1.8430637981532798
2019-08-03 02:41:14.075259,0.004519140552309642,-0.28930261647788774,0.2837299712609415,-13.872467601201484,6.237016620462759,-252.41695653950987,0.10384269618272676,0.9872510558397231,-0.16837058460524956,0.2116524860886011,-0.4995738397701051,4.445111796632896,-0.8590401831438237,-0.05549959512683038,0.49433985936084135,6.901520102463519,-3.41636154679968,-1.3748680762314434,-0.3395368228000884,0.03487702272505772,0.36007844849329873,133.94608087640825,-39.60885630768636,187.912181931898,-0.09232315426101857,-0.9958352023312047,-0.10744192008420653,1.1501901512722656,1.7435488734418167,-1.6411809302134048
2019-08-03 02:41:14.085259,0.061214484158786,-0.3103907269764696,0.2789903506142619,-2.7665465470271147,0.6367200257952812,-253.44275066180583,0.09814023503717628,0.986856216288591,-0.16655801411867127,0.33981167491572223,-0.6132602468037085,4.516115743568042,-0.8572643477314807,-0.06218453740659918,0.5012118799935179,4.491002819586049,-2.512500740610955,-1.4486807506479815,-0.3002339201055764,0.038796739697875164,0.34324607785879746,128.50406238328375,-44.304065921103984,188.72369997746534,-0.09347863572725507,-0.9980788962933528,-0.10621852263926815,1.1828856069105889,1.7305793184305718,-1.7925001082072893
2019-08-03 02:41:14.095259,0.13717970169639826,-0.3163803213121215,0.3045451380732124,3.419932811063273,-3.2127513975227964,-253.7743302227887,0.09894428670637054,0.988843719671636,-0.16884575086647158,0.24253520573443543,-0.5368313941978732,4.539006568402462,-0.8709529050231033,-0.08269146526411675,0.5062579147189628,2.852243686173366,0.3193789170016252,-2.459545200392644,-0.28319116592101035,0.06633348741616521,0.3388247185424606,127.12035682592752,-45.848041332632285,189.375831573677,-0.0940563526148703,-1.0011889808490215,-0.10644021411998775,1.1447403455292289,1.9684598915096339,-2.7881531963088415
2019-08-03 02:41:14.105259,0.21366958454933146,-0.3182843802100698,0.33035600945953786,8.565957576187838,-6.02037245736794,-254.1826453893011,0.11588420336462303,0.988454341531444,-0.16576814880597485,0.21472792119897857,-1.2008925277821658,4.544210321578039,-0.8906019884566203,-0.09074088076522487,0.4857691980736212,2.2183952089168417,2.458137741720784,-2.788128401242809,-0.2728298328228693,0.08739768609193406,0.3353877749059944,126.5511924094537,-46.53211725289859,189.83064211840866,-0.09200352196203788,-1.005908212066326,-0.10795763203223435,1.0670583326732934,2.3602039539246675,-4.35815933651298
2019-08-03 02:41:14.115259,0.24841699818347596,-0.31707465327698886,0.3412875324696143,10.22867424412159,-6.6354918583415925,-254.06745818047256,0.11974913590162034,0.9850171778512249,-0.16613885416754426,0.08145552636916746,-1.5882438456201493,4.329127760638605,-0.9000941440185325,-0.08944569029971448,0.4792345620540829,2.8276362709188887,2.868881611362255,-2.5106892199923867,-0.2644080762168895,0.09976836982917431,0.33043680841149675,125.81802283744031,-47.1836643004913,190.21587532833112,-0.0852124558451693,-1.0053352593180158,-0.10702459216073981,1.174559019432593,2.6574950914063784,-5.100130606435984
2019-08-03 02:41:14.125259,0.2605337420403142,-0.3111402863401018,0.342060920376343,10.71599706740852,-6.767531896023071,-254.01057828468961,0.12063846371337213,0.9849387117219466,-0.17196673799113588,-0.1043091257760731,-1.3529324252077266,3.8693114180128068,-0.9111585697072849,-0.0835935341201942,0.4757240333875167,4.3206110257823935,2.6361857958379065,-1.5990547145630665,-0.2584338137485062,0.11264248553238555,0.3259278098353638,125.03135400390045,-47.95121216050786,190.55832528591853,-0.08301014468014822,-1.0027004145732215,-0.10529493644135207,1.2016832706910499,3.0186874340645247,-5.478311355008781
2019-08-03 02:41:14.135259,0.2799093216405499,-0.3055321200157704,0.3472568889657595,11.887008087056712,-7.237756300971802,-254.09322064367603,0.12091471014580943,0.9883780332044318,-0.1727996827297868,-0.1214542742418806,-1.2107618727103255,3.6636377251702115,-0.9159654125290985,-0.08902655117811954,0.4777810455198504,4.939266066208483,2.0923823185284625,-1.3602790506494025,-0.25446412741489477,0.13428860328812958,0.3231192272423932,124.139015202429,-49.0745016083185,190.98041854439492,-0.08274731579015267,-1.0052350812823763,-0.10775556746112204,1.1578826998679919,2.921135538542769,-5.684996709653444
2019-08-03 02:41:14.145259,0.35125990543632113,-0.3199155637051226,0.3851753015754747,14.864421958936749,-7.175926821458659,-253.4079261362773,0.12095001732550244,0.9897257217049468,-0.16916177973220062,-0.09608219221886836,-1.1556020880204096,2.7160382952456747,-0.9199132144043838,-0.09535291938942582,0.4787866488365342,4.7649554388808655,1.6317551235273307,-1.2378230128896666,-0.24617505595707725,0.15573404242659478,0.3200248829490144,122.27867341684761,-50.7552913227954,191.79079727853474,-0.08251236989189119,-1.0076608913881677,-0.10634826137572599,1.1711790546858072,2.889995363960133,-5.826353340967153
2019-08-03 02:41:14.155259,0.45959342094571504,-0.3526096174980007,0.44534902978299684,18.611215700862235,-6.3810277297897695,-251.98528644116286,0.12673723953499869,0.9891527080508536,-0.16988939886047796,-0.43735922196728805,-0.9392452849811114,1.7876461359557179,-0.9221131332208227,-0.09831839928246054,0.4775268300838617,4.40183407444947,1.4549273959021352,-1.3075559857008427,-0.2154885061446648,0.13346315881039464,0.3094643623205753,117.14100928176367,-53.02442758142702,193.7324978049401,-0.0816820715770557,-1.008281845217117,-0.10275110712959158,1.2151082405739622,2.777560162768264,-5.765416931521252
2019-08-03 02:41:14.165259,0.5317315230972939,-0.397497439011277,0.46858026831632965,22.467716079454313,-3.6020808346161766,-249.14385830694695,0.12543727485464498,0.9908749182705922,-0.16614706313117739,-0.5209808642712762,-0.8228368025913713,1.4979282266819614,-0.9247301996962323,-0.10185331600511909,0.4792403741343216,4.85872157903664,1.2815293982920841,-1.7927271608472042,-0.1487616432189583,0.08241090662303409,0.2851647781808888,111.76811444634814,-53.810189006456916,196.38181213629414,-0.07997664218754155,-1.0059188184355812,-0.10298682766909203,1.2170087023224911,2.6181026520336736,-5.670086713118265
2019-08-03 02:41:14.175259,0.5656217056291584,-0.4089645629305815,0.4659367948006556,25.80038105587115,0.1658392395844073,-245.45235150859315,0.12286122900238682,0.9909627581503225,-0.16107245989856242,-0.45374903774862696,-0.8530717311252904,1.4675038036715071,-0.9376207459297434,-0.11199918405124669,0.4695302513502717,5.1767769976517926,1.786374629587957,-1.6578901773367751,-0.08887653809703512,0.05943214826799336,0.29612995241028506,108.62363066816076,-52.1533392042577,200.42784697663006,-0.07944164872453974,-1.0008719230084107,-0.10707350026030302,1.1273240612245659,2.4817316060041423,-5.79790935850821
2019-08-03 02:41:14.185259,0.5807071958149882,-0.38976174128456653,0.4500804304124295,28.543576839221032,2.280577563400233,-242.9899667752687,0.11852741185431286,0.9913095543372931,-0.1642233136759809,-0.6376193566191498,-0.08908857808494297,0.7708607841894951,-0.9446728566092505,-0.12079673005288928,0.4607237509475868,4.906629898030184,2.325424876726387,-1.2361921448881783,-0.03898235924671855,0.11816524581783837,0.31431548091665457,107.326941762914,-49.66916033087479,205.29998745626577,-0.07844299414107402,-0.9981125074824839,-0.1061917164216997,1.1049794603388028,2.2298288102781885,-5.907674695073646
2019-08-03 02:41:14.195259,0.6225719013304122,-0.35376024198116995,0.4605567026587942,34.5145133622705,4.867880634628359,-237.56030876684983,0.11556131166132204,0.985153720123878,-0.16816757498357213,-0.909934682074312,0.5309094707913521,-0.19126689704730748,-0.9400450692466007,-0.11324289145076717,0.45805315972991284,5.3858083511143615,2.4658533831693963,-1.24571976128635,0.014090633694175023,0.15239044286962308,0.3245579726470419,107.49537934536208,-47.107124816470794,210.87643536478316,-0.07407434872946156,-0.9998253122046533,-0.10548829403235592,1.1597741254639011,2.1301080060372874,-5.819570778434054
2019-08-03 02:41:14.205259,0.6566008731784546,-0.31396809344520354,0.5040520731308272,38.14061623599996,4.429720295202367,-228.58520351652268,0.11241954014641418,0.9825432675500443,-0.16509565752670055,-1.0154878836313173,0.47131848651425257,-0.4114117217692329,-0.9266638672275225,-0.07989146857749957,0.4544664050783659,7.510040250057786,2.327215847605988,-1.851772121745721,0.026857404077573768,0.158935168068773,0.32969729808010145,107.53345169889056,-46.38457691691856,212.39297995894535,-0.07202412313942065,-1.0003254295951503,-0.10684712299479777,1.1525445059711061,2.031332761437336,-5.79287716933989
2019-08-03 02:41:14.215259,0.7180232951878821,-0.31723415719589954,0.5793019252280681,38.96124137441007,2.7934781288457,-217.40841779266012,0.11055639893583791,0.9867787785437234,-0.16646887790015033,-1.0144738696345308,0.5998067421314821,-0.6680366490149796,-0.9191085706164,-0.05543398089735284,0.4660863702679964,8.757275974341834,0.5330190372245177,-1.4911013699951001,0.032423011422108336,0.13562532227681665,0.3509637275053904,106.17406995546227,-45.8742280475796,214.09633487822776,-0.06796437659955967,-1.0001304811552847,-0.10829605440391575,1.196291790720326,2.02785700592198,-5.894658454048088
2019-08-03 02:41:14.225259,0.8019679491187182,-0.3281731458864421,0.6561089176978161,38.16936011513554,-2.2486741246923465,-206.2682863023481,0.11144657808398074,0.9874988701018295,-0.16388639167371374,-0.9707567127167113,0.44769570315973,-1.0225933161678034,-0.91876979572434,-0.06300415777722773,0.45796221695385697,3.910569635658582,0.7691867229840308,-1.763047866780895,0.06717770016296326,0.08363830474993932,0.39842586155784143,103.42301680407381,-44.40933351679646,219.418305679997,-0.06036974440167823,-0.9992310788837585,-0.10608894002624107,1.2497459159550641,2.1051439007902557,-5.9431849678613355
2019-08-03 02:41:14.235259,0.9016388730640736,-0.328611826000042,0.708609111636946,37.37266337994358,-7.355793516722326,-196.46663414068158,0.10606835405437322,0.9844954817482428,-0.15789250914073627,-1.100816582748056,0.35250908320825347,-1.1125967536458414,-0.9172685314963231,-0.08495826606789811,0.44498487448368895,-0.5840796091745319,0.36126953588087185,-2.0243373006089422,0.13076190088866876,0.029695382505456575,0.446385724810097,103.39127551058293,-43.977090441243554,224.338669292551,-0.05305798989588523,-0.9966336186260499,-0.09914847107900547,1.1532845537880019,2.1859060894862576,-5.714064274251485
2019-08-03 02:41:14.245259,1.0581099081810514,-0.29081608536140524,0.7338527820156888,34.28782228585246,-12.76431256957729,-178.94900900990305,0.10280618283226303,0.9903818200393114,-0.15866671451920944,-0.959102090864402,0.5867896252546341,-1.0925253642152564,-0.9166786100714295,-0.09412618904514235,0.44488681699024685,-2.466021768885964,0.04367624840405904,-2.199854953461319,0.26612846951929486,0.02716943183128538,0.4498875905301442,106.98524945865941,-43.99432516642672,230.11632739131414,-0.054596601381829306,-0.9955165346924313,-0.09581140066105978,1.0360193525453072,2.40888900908072,-5.527495715586485
2019-08-03 02:41:14.255259,1.1425010593041582,-0.2672196060132666,0.7373975394628366,31.268094883638327,-8.987809228426299,-167.0005373539079,0.10301054230983527,0.9988373571446302,-0.1617538810653083,-0.6206104806317072,0.6854581849947998,-1.1416061485110287,-0.9277355905950674,-0.09736515878642936,0.4387258771369642,-1.6827020607409628,-1.1676631178910508,-2.5268900816801017,0.4247491940134921,0.10998680839817356,0.38169147153704264,111.69980123913132,-41.86647797227661,235.10755654788957,-0.06148429995355427,-0.9921084129009061,-0.10311248254574415,0.8403952891161108,2.8255785375171882,-5.252902677336307
2019-08-03 02:41:14.265259,1.2140637395099974,-0.26378352180612213,0.7447116625840184,30.418626354050737,-7.560523697121744,-164.08716837070514,0.10093823552787533,0.997832296581635,-0.1620659633631738,-0.5092036435783127,0.498636032185901,-1.1608989679611155,-0.921163376666061,-0.09769200551724481,0.4358724142467279,3.0502646541012792,-2.4166949088295318,-3.24158115300004,0.640329626846628,0.2151645892453514,0.23571819394085988,118.52921210124165,-29.65161028326642,238.692086549225,-0.06632045214024777,-0.9891595663957853,-0.11253687159214619,0.7110609422392363,3.2354914535775605,-4.705530528827895
2019-08-03 02:41:14.275259,1.291869458272692,-0.2736202239550649,0.7480859062276126,34.138063221147114,-16.484738004350415,-177.1927619705171,0.10059412687747793,0.9927622050492829,-0.16235189548496656,-0.617213107025734,0.5332928403694859,-0.8796185055517827,-0.9196665595428415,-0.09200353359192194,0.44567418530458003,5.45922666902895,-2.844219942403632,-3.858179176946149,0.6713159913150121,0.22092745043869366,0.15043265074163212,117.99306986425955,-17.72242018202907,236.9657628219672,-0.07261517967270636,-0.9969602331767463,-0.1084008458001734,0.8712066589539399,3.2514904822988053,-4.459844429780824
2019-08-03 02:41:14.285259,1.264315468668033,-0.2780920261144148,0.767466361807182,26.707285841042797,-0.8044067427043853,-153.9164252315206,0.1012349886528082,0.9864543505557787,-0.16747049013399562,-0.6177159685786034,0.36166893839439246,-0.30988016184280853,-0.9166192345716069,-0.07014825982392324,0.45127833915748394,9.206318347408715,-2.3659227733389625,-4.040744181294845,0.773030734668564,0.21225337278207299,0.11882388596220171,113.87125637750243,2.6362302531355364,232.22713383785035,-0.07530409821886819,-0.9992350570957641,-0.10477745421918523,0.7965581919783243,2.9568878803970327,-4.3629980854508545
2019-08-03 02:41:14.295259,1.2215053927012232,-0.2608694251759929,0.7841205753447603,21.105243626562512,15.199207880701653,-128.8514463981909,0.0979391089672639,0.9859550908638657,-0.16915004979444187,-0.5829294574714793,0.048139729851400165,0.2614931033630862,-0.914203322794052,-0.06363500575586545,0.45068282610379834,9.820661805158226,-2.256077444784437,-4.096370592602807,0.8163797447433374,0.2506623286563988,0.18701268718638805,109.98818463878273,19.03087798561654,228.7898963937294,-0.0761308055559323,-0.9994039721186532,-0.10104976076041773,0.8000242963379114,2.4695151714063868,-4.358350450755297
2019-08-03 02:41:14.305259,1.223066859440474,-0.2538859491865259,0.7888051000980303,21.600151095686588,16.741594107195986,-126.58674355182782,0.10228425363681556,0.991954240719776,-0.16733569964904343,-0.48004026315871345,-0.2649759485473831,0.6605053355758764,-0.9090021790804534,-0.0642979915406185,0.4496951381917607,8.879664675834595,-2.6101689579639897,-4.366450683307726,0.77053122375443,0.29447470914793483,0.2837108794822825,108.37696372848117,35.26569883797379,224.20197290118278,-0.07059238218408508,-1.001938868969937,-0.09897697894578444,0.6270851667112867,1.3346843817456122,-4.461348315818903
2019-08-03 02:41:14.315259,1.2109073002078425,-0.2563630632831701,0.7979897285267766,18.798866398243984,19.85921485701774,-117.9385852515716,0.10576079595061394,0.9889692741571813,-0.16512897163809515,-0.45453348184066533,-0.6794954347058078,1.081160856860364,-0.8989835869981262,-0.062337236659249465,0.4549565755810354,8.210274733738634,-3.3020746524933173,-5.114479425231551,0.7070723098678934,0.2829163674636124,0.3302474430266424,107.81758996965412,44.693897359598694,220.40302997523028,-0.06421941114702508,-1.0053150133371225,-0.09943045998342614,0.4563103767899146,0.44171939689261636,-4.501744480766132
2019-08-03 02:41:14.325259,1.1934703122230834,-0.255206024124016,0.8138229188900313,14.429906323041395,20.808887537460798,-102.99613346773361,0.10329688869030254,0.9869949035438123,-0.15990133307180288,-0.28034614446900186,-0.745473891514766,1.457906940107943,-0.9050584686488009,-0.07979363397299202,0.4737058201342071,4.9904062969277945,-2.472610566398937,-5.380643696116637,0.702832560407564,0.2552209090242065,0.2976031474964546,106.61089138383109,44.47752093804328,217.1075831801536,-0.06135011378532917,-1.0070400378766438,-0.10165250106644363,0.4319939161197793,0.2508550139452157,-4.4001692893525055
2019-08-03 02:41:14.335259,1.1814081487496817,-0.2565470465627631,0.8269469848805651,12.507753831559127,21.533752091764857,-96.83705638912701,0.09930821737827315,0.9870658844356214,-0.16345132676111826,-0.29252939589710886,-0.8114816265478051,1.7074734649923795,-0.9080338049839084,-0.09301000062492695,0.4769936935265512,2.562152876093318,-1.212619902207269,-5.237731212202167,0.8616760906705464,0.21811006959478915,0.24333376716133712,98.99519551043436,30.709621335396584,209.68724097535778,-0.05981569008313477,-1.007037284724235,-0.1039407934287602,0.45519809792632043,0.3698733622000011,-4.306910724491256
2019-08-03 02:41:14.345259,1.177642724701193,-0.25312874645286215,0.8303306781739493,12.010431073245709,21.233589277200444,-95.60423218436038,0.10302955887607275,0.9877034263755773,-0.16318838316061546,-0.28147459113657514,-0.9834508867966683,1.9530889462364103,-0.9077109318089052,-0.11482873985636714,0.47445633882244775,2.218253645942173,-0.94040970456543,-5.4683351100999795,0.9877092227615589,0.22693174529954016,0.21020156644294438,89.48077619564522,17.29392044261545,198.88860967746595,-0.0585790198084572,-1.0052336986751236,-0.10512890667991762,0.4367382933884873,0.47710102977993496,-4.279943106226825
2019-08-03 02:41:14.355259,1.1816268486518446,-0.22976324533832002,0.8196058625149552,9.66325506218274,17.290416524459886,-86.02104630771984,0.11171103784255151,0.9867312941833672,-0.16190221931188237,-0.11227229484213666,-1.909435167945292,2.3324683865693276,-0.90988375657328,-0.11606867878431092,0.47680800351099983,2.3650024314092724,-0.9257357454399796,-5.398005615708114,1.1074975753145408,0.27251112314624315,0.16968880605784525,82.38682089389744,13.245710899914426,185.21074537971162,-0.05964506917592028,-1.0024657183366505,-0.1061066968316436,0.31127188900396047,0.5432611439295797,-4.062447582080357
2019-08-03 02:41:14.365259,1.194769651123679,-0.1938052416040495,0.7999626109673487,5.352723130981285,10.906153119354329,-68.15561575558895,0.11777651551513527,0.9916102837869927,-0.16096908717403,0.15798032049020844,-2.365672842227807,2.359192258074677,-0.9115000777585968,-0.11554038520755461,0.4680541290698154,2.8672305942643277,-1.1190599725369132,-5.258888513185657,1.2234750963479637,0.28717382305764616,0.14958987259084663,78.83270567744559,12.089661734709685,178.5178620566619,-0.06265111677961455,-1.0005099098390458,-0.10675278887161715,0.08087117279867309,0.5659356572037658,-3.5661924705165973
2019-08-03 02:41:14.375259,1.2196138642075998,-0.18231398287380451,0.7916578580671383,2.90895224190597,7.363239381241326,-60.04040229091813,0.11640530810100154,0.9916662561183363,-0.16230356853923647,0.4168270835013034,-2.432180945305613,2.2349399471308726,-0.9157504019121289,-0.12349683990902031,0.4657242482949916,3.901688074744744,-1.100174366260746,-5.358855601992107,1.2568659689954425,0.28994437697602493,0.14092450097281425,78.25638162857406,10.527468451523944,177.99586596427872,-0.06075864901243932,-1.0027114342939043,-0.10373077414077826,-0.15339316028457675,0.3640586961976997,-3.231250759580144
2019-08-03 02:41:14.385259,1.250657999813318,-0.16712496341545324,0.7910064447395082,-3.1057917198747553,-0.36116164569773324,-42.508645961432066,0.12198927464450629,0.9913104798528871,-0.16718973407571394,0.4970876311681833,-1.9700277037622498,2.065501453010123,-0.9110729579659168,-0.11795005430942372,0.47926768384541685,5.7870289751185915,-0.7559924912966578,-5.433665079397276,1.245260999894401,0.2891459915130653,0.13925795997728133,78.44341451781808,10.057118121464123,179.313325809736,-0.05440390299827618,-1.0058029567828588,-0.09787952216835093,-0.3279957265180823,0.11217140650590006,-3.1172098043707863
2019-08-03 02:41:14.395259,1.2835848436005792,-0.13785020391180966,0.7913956040572864,-8.665384834937802,-5.90287780380474,-21.805598436883198,0.11651358944849761,0.9871817494133565,-0.16563297285378653,0.5216586432783648,-1.870838331743234,1.8835718197515856,-0.9111385908005422,-0.08828905576926602,0.4843724696252011,9.18544222677472,-1.1280595832251663,-5.225666169544117,1.2367863614553318,0.2964373968311128,0.14291775428132794,77.51363234644177,11.546457409446463,178.7915590654877,-0.05534252043617013,-1.0021554902813714,-0.10174763699306155,-0.47093148372252536,0.2779957426318407,-2.810896777770778
2019-08-03 02:41:14.405259,1.301640483788453,-0.12176411366135242,0.7931715181397833,-9.686436776274302,-6.184246860789053,-16.06204757924806,0.1192828042514584,0.9867985135051374,-0.16380893667320148,0.5441734888146028,-1.5669890478262307,1.6414463568767192,-0.9120518455927905,-0.076865825842404,0.4886954955985696,10.81154265013076,-1.0938403682080773,-5.035433383472453,1.2717986445654466,0.3214235762587433,0.14783562901333824,73.34837035897625,16.47534151584937,172.17683922815226,-0.05812783866761718,-1.0047334386542597,-0.1038455037624616,-0.7727006634782332,0.36874921205523375,-2.311935450414819
2019-08-03 02:41:14.415259,1.3609251009180103,-0.10594615260140669,0.7915329563712554,-14.545441830256118,-2.6463085666895045,2.462552678506987,0.12650483569839838,0.9888911064994071,-0.16270637561624773,0.7138066950679228,-1.489098432411482,1.1042398543170453,-0.9115916650672214,-0.07745188370247078,0.49339335526767714,10.422685399004182,-0.7643169229761304,-5.203935748861992,1.3313857039650105,0.3436374692899852,0.14753902245662517,64.92798627703063,25.938408259942697,158.0771306238074,-0.05643712473610535,-1.0033689127679977,-0.10321595563243466,-0.7413596073108439,0.2497998831758031,-1.8060804266962867
2019-08-03 02:41:14.425259,1.3748503816440851,-0.13997977206872042,0.7870580952333108,-23.125946782900243,4.367608466039365,24.349184547716227,0.12159854713510283,0.9904022329616989,-0.16442092726188132,0.7790049721536743,-1.1947137838420272,0.6858361001707813,-0.9121676620431827,-0.07700184458452626,0.499016151790735,8.402530247026315,-0.4931793145633678,-5.977449388085089,1.3438726794053184,0.3452721753731591,0.15317012644812583,58.86028021898959,33.5502576846998,148.21994349172274,-0.052559561369063694,-1.008417221308337,-0.10661626804354707,-0.7421544205479008,-0.10009878974403824,-1.482188541903766
2019-08-03 02:41:14.435259,1.3548184924500033,-0.16616636753280098,0.768606709011326,-28.685778308405865,8.978627035526015,38.97579004940803,0.12197453127439765,0.9866963383418104,-0.1697802091183641,0.7742994113381542,-0.8984912419376085,0.40587494846044747,-0.9204516514506262,-0.08683987073222649,0.4933490291205758,3.7892500358132244,-0.34403617731136665,-6.855273762299428,1.3310804252543738,0.34622943277710255,0.16317271513023743,53.58537287960305,37.088586734251926,139.49543665773027,-0.05305341420803583,-1.0068347416639976,-0.10052485919006446,-0.6807994662618103,-0.30922073321535976,-0.8479729788397053
2019-08-03 02:41:14.445259,1.3435689889076396,-0.17604823119428933,0.7474819420307962,-31.768746165028492,11.31460668898003,49.21751000306433,0.11872650131077327,0.9856886408371291,-0.16734429282002292,0.9317732736460173,-0.8666387462762631,0.20594482882972304,-0.9246901897325482,-0.08736023991748863,0.48957670361220007,2.8455286500051162,-0.40912658507665245,-7.434024125724361,1.322163951251161,0.3490707413966296,0.17345912375914774,44.10907414256108,38.29725112480689,122.23323628112486,-0.05441134005021134,-1.0057466501640577,-0.105605814761564,-0.9036400181853241,-0.3025446256688429,-0.25292229694678253
2019-08-03 02:41:14.455259,1.304015196065607,-0.1861295241426543,0.709388718946366,-36.28711100532621,14.072726555491199,69.4897005909604,0.117011853840763,0.9842422197778308,-0.16806995607267866,0.9132737449289056,-0.7246898311827035,-0.0033123665075217787,-0.9238204450534048,-0.09361511064684588,0.4853332637366087,2.1153224735944987,-1.240514797583849,-7.574973137529449,1.317055485275508,0.3438743796388346,0.20002416003171192,35.73691709523064,33.765050515021564,103.46073954288043,-0.05688253463345635,-1.0002730393113952,-0.1078837380573366,-0.7802048066279407,-0.15576475963096015,0.4564769077212174
2019-08-03 02:41:14.465259,1.2269076479007093,-0.18939327716100587,0.6607756875968935,-39.60535049330945,14.758785650430692,88.36797833493871,0.1213446282233679,0.9808289615602921,-0.16411937988132994,0.8759954303465636,-0.7065169192265925,-0.24542393976798757,-0.9241314374261036,-0.09514822075615577,0.485831961063289,1.9350198338643965,-1.3579925416133252,-7.625860441605894,1.3617241271181388,0.29684766084229214,0.21873219711540104,23.45485416466635,18.93627352560244,76.02108483102444,-0.05899511209761557,-0.9990655765615726,-0.1059672862568374,-0.7152646628150576,-0.10579309076221856,0.8524073588230351
2019-08-03 02:41:14.475259,1.205985618450001,-0.18886704159186019,0.6424405091289233,-40.051498901816224,14.723712394800172,92.64772151224855,0.112053954448652,0.9910148239630003,-0.15677122189667575,1.2311274910780974,-0.30087255026582904,-0.5442782704593774,-0.9218131906852169,-0.09509085159599209,0.4876378062216293,1.7179187877569677,-0.9816870924519616,-7.6277608718663545,1.4263128067232393,0.26475855169507373,0.2494950725909896,15.123308479651776,5.114684062604588,52.908834542379736,-0.0615881886727584,-0.9995299129703588,-0.10109709807481781,-0.6975251292040703,-0.2171777409498175,1.0014066091147182
2019-08-03 02:41:14.485259,1.1851509778415268,-0.19227198401223136,0.6080303101802684,-41.11712619440528,15.0460973406633,102.4402188443022,0.11060684523390035,0.9954539529580407,-0.15459811999018977,1.3148453917688847,-0.10017854093116194,-0.728857295533324,-0.9130578130579147,-0.1014742560188714,0.4849952907568523,0.8558933690803493,-0.7545265588610268,-7.585536090160927,1.4747067228438855,0.2329627224248542,0.2873758412026674,8.029636771374628,-6.9429261258943695,27.88729141972234,-0.06139372359090388,-0.9973437077913234,-0.09926015028242036,-0.6769704945446675,-0.31529781139646185,1.0295125855219995
2019-08-03 02:41:14.495259,1.1604415421756018,-0.1946963387739127,0.5613812267757633,-43.179279837069686,15.628872515137415,116.88557467017945,0.11093548590626502,0.9917868613525226,-0.15740702741156587,1.2927651984074835,-0.19435672190401015,-0.717781487899091,-0.9125075483361448,-0.09768483429660264,0.4844231703335026,1.0438973120735697,-0.5524978401245921,-7.661672042911143,1.4992249032980067,0.21560871511689986,0.3120406576672023,3.7340344413600093,-13.961068818154818,12.087469596258522,-0.05793927712580614,-1.0068912957271074,-0.10637280930871883,-0.6781216471017817,-0.3958204786764909,1.1065341658764671
2019-08-03 02:41:14.505259,1.161942137440214,-0.19050093426322884,0.5414280727459336,-43.95792029413736,15.652776028451155,121.49817753521094,0.10233785901865498,0.9886043378983568,-0.16360835221535816,1.546033330255415,-0.4619758986773149,-0.49170478208564034,-0.9063942851793886,-0.11669610630327944,0.47185765628315113,-0.05329110546334872,-0.3271151104396334,-7.6885458513667375,1.5086696614282746,0.20885976485001367,0.3204860672093977,2.207152920098604,-16.343529007967142,6.590073879038922,-0.06617235444730563,-1.0038394984983308,-0.10799730922065844,-0.843495218377013,-0.29561650648676907,1.2164085984129693
2019-08-03 02:41:14.515259,1.1453600384865117,-0.20210813728110147,0.5172398206846572,-45.15431460172927,15.982300223972617,133.37509489356862,0.1112276925865759,0.9890836642629417,-0.16841662068590965,1.6936692821714507,-1.0612465651408294,-0.2552613138057688,-0.9025856802467768,-0.12869492516334632,0.46580831027935027,-1.361527078911964,-0.5758639749372984,-7.542998288972755,1.5072898448965788,0.20928130070138617,0.3196134498146086,2.3920260150883346,-15.77971046571318,7.296879503006038,-0.06477141940779144,-1.0046437056621105,-0.10870987505981776,-0.9576793977011236,-0.21314507179683018,1.2490883778088735
2019-08-03 02:41:14.525259,1.0622939641694278,-0.23027284917199634,0.480956151316681,-46.51809948104212,17.524887569732353,153.613161030112,0.11676259344638917,0.9816866781266458,-0.16500974690954143,1.9337285747664013,-1.5393042637964998,-0.07132036537381445,-0.9051613768789599,-0.12716383575597195,0.4700366491720698,-0.8890279031372518,-0.6979800433603055,-7.260413397466876,1.4998876586189924,0.21190661402836156,0.31614259646010845,3.140765836638005,-14.066421188032646,9.833481044096422,-0.06333552386976701,-1.0052522209257302,-0.10767313820621574,-1.0309410890058315,-0.2718172000864684,1.2443928329454148
2019-08-03 02:41:14.535259,0.9656633475190632,-0.22885629452153652,0.4514072052920849,-45.95080101182979,18.793873965414253,166.93683548375708,0.11905392396802532,0.9845287962487953,-0.16488849304511977,2.169213290050598,-1.4131744971793125,-0.0319478128159702,-0.9113370016554159,-0.12680382358054365,0.4770984635710512,0.4865050580476567,-0.28088141578351744,-6.6712877283039544,1.4904982192282445,0.21167469973618813,0.3166655476368554,3.2924411598230314,-12.893369080604588,9.45542439024698,-0.06535939583980636,-1.007588043812483,-0.1083368532927496,-0.8989012077420578,-0.28795550316087015,1.2009998816328202
2019-08-03 02:41:14.545259,0.7879743906378935,-0.19770519627867617,0.38279731162940067,-40.23826720370539,20.27709300560934,188.45558998065255,0.1226331772517474,0.98277759821845,-0.1663093027728494,2.5585544610463824,-1.2320730572256162,-0.11973035918211214,-0.917725445684678,-0.10495369270613099,0.4815691951043958,5.618665657645491,0.3643047884216699,-5.214994360852559,1.4861350615667055,0.20626532584322066,0.32748700121881613,2.0238296203085455,-14.169502972050624,4.25898113767068,-0.06271201548074762,-1.0022180977242199,-0.10717054378933939,-0.7249625877749999,-0.03118777637901173,1.0802051457843307
2019-08-03 02:41:14.555259,0.7049224165941553,-0.20824246966281498,0.34522420743090965,-35.04930407840588,20.321858305881815,200.6530101268332,0.11969386382913777,0.9812293188173964,-0.16899141755586283,2.659255551339688,-1.0610250133767545,-0.2688562859323504,-0.9059146140746079,-0.10154904841681468,0.4835643878047693,6.074853673252481,-0.68030164275296,-4.524180137799511,1.4728856930773138,0.18390087965182858,0.33677175413727234,-0.7113116535081468,-15.28837771342172,-13.326920665260918,-0.058765765852500165,-1.002730797781392,-0.10183237752455286,-0.5015809475020558,0.22905096586340365,1.1458830840426293
2019-08-03 02:41:14.565259,0.7627542044779853,-0.18379601755405406,0.36519933060527804,-39.97708063080266,20.210185547128344,190.1680753256194,0.115462824732173,0.9798932439305083,-0.17106025548249268,2.7977803604218323,-0.9605178865189984,-0.343571586861864,-0.9002907115743135,-0.09006165668962249,0.4857459750263472,5.1490993474365165,-1.209914950522713,-4.303009770871627,1.4573740920971059,0.15330947998279687,0.33113786228962105,-2.629292779347167,-15.177043480707692,-30.929297524973414,-0.05978981144112113,-1.0087100908053368,-0.10049148103810226,-0.3004024052339159,0.4401202643603223,1.3293049033651874
2019-08-03 02:41:14.575259,0.8324617277433131,-0.12551107429737765,0.3909210350993796,-48.562073244369884,20.617119182273292,174.95664710713203,0.11261103975897141,0.9800531407833118,-0.16986515532794777,3.057489503114297,-0.8927374085181479,-0.38541759212519344,-0.8968437971912427,-0.08590398077032069,0.48781643369768424,4.750409243439774,-0.787649788322611,-4.020706244466061,1.4424949144522685,0.16560852790712066,0.2823191819526057,-4.0940820580061965,-10.341456920941393,-54.45335891213376,-0.06299390711978077,-1.0068859727961779,-0.10454578186702845,-0.32208688383969947,0.6918245983305609,1.4221594174873018
2019-08-03 02:41:14.585259,0.5887347108767585,-0.2249659047776727,0.27705360982738614,-27.013952202541706,19.566103180476215,217.2338893016712,0.11052295801900157,0.9825604233399777,-0.1670173159743729,3.540373495035803,-1.1290446059637667,-0.569741483154893,-0.894276885604387,-0.09072625339355864,0.49068764641733065,3.5821065874999714,-0.7678288902880976,-3.6475390807496364,1.337909534567375,0.18078466233851825,0.2661680559150909,-6.977204187530198,-0.6018296442422084,-79.5742967859419,-0.06465035470414986,-1.0047711750765393,-0.1067130434803555,-0.39241389003289434,0.8781832063175209,1.4779076001570521
2019-08-03 02:41:14.595259,0.5450411937232031,-0.21166983765977937,0.2299655574535576,-23.106577815560716,20.53879431347733,221.3220682088297,0.11495787226071641,0.9832535958370916,-0.1694252671623976,3.8211357659321363,-1.6362560939060589,-0.5356163106225953,-0.8981512453034347,-0.08743027808739233,0.489745844153067,2.597565179899959,-0.28415098743515727,-3.3016555497835887,1.2326525814606568,0.16789046875897046,0.2595111828882251,-10.34186958815682,5.999980803313555,-99.28404287485044,-0.06434035038125181,-1.0047506264664194,-0.1057801627735377,-0.4432884060293302,0.9884066321333985,1.528069711292202
2019-08-03 02:41:14.605259,0.5118216809588312,-0.21465370849497925,0.19841972786787174,-19.84914514460312,21.108557515557436,226.1529272081968,0.11507374046203815,0.9871466445529206,-0.17138397256655627,4.086734170390913,-1.7996677425535874,-0.46069085975523516,-0.8986531777145152,-0.06912143387054873,0.4850852878970351,4.651944335677551,0.9880986398183647,-3.2212917496745805,1.1580922667942155,0.14403202546483776,0.2593592818414574,-12.284305788400797,8.700287461957341,-117.57498391546888,-0.0628421422649857,-1.0058882792420019,-0.10383112813937134,-0.45085386915874653,1.0981979204754384,1.6256899843221377
2019-08-03 02:41:14.615259,0.5095235830200984,-0.19853745543379298,0.18325223836948568,-18.77617935266538,22.49823601516927,225.63565612594255,0.11446207179016558,0.9896213624214079,-0.1720647588242741,4.350583809412654,-2.002087632841129,-0.5731237312275298,-0.8949877137203878,-0.06465013544641939,0.47884850583179195,4.2262608006701265,0.8375904784105307,-3.567612070840345,1.1024009645287822,0.13166185547812612,0.25144685187143495,-12.67274995416794,9.82199515646876,-134.38382031678597,-0.06121967791930422,-1.007913288401901,-0.10278288121346955,-0.3920902374210817,1.2588169713178734,1.8091119349487876
2019-08-03 02:41:14.625259,0.44627817000102243,-0.1659737161390303,0.12481975777303662,-11.36930210601821,26.077631067293378,230.90388914129719,0.1126730644727205,0.9873260946828532,-0.17201312028076676,4.484437127255621,-2.0091806871119884,-0.4908296881059051,-0.8969206494904711,-0.07486084994548091,0.47937129881099055,2.614996887493886,1.144967804380463,-3.540497154271756,1.0380102561711169,0.1394372187345314,0.23721165468938304,-13.13301244871439,12.817396298599188,-152.70850231430643,-0.06041022168904014,-1.0100325007382165,-0.10394934145808069,-0.2662614085717888,1.4958965644929991,2.071049990501073
2019-08-03 02:41:14.635259,0.35578359727128933,-0.14713668538157093,0.08344285027834192,-3.1290977348415785,29.306206240322506,234.59084868431262,0.1096153840303691,0.9830350880202612,-0.1744813682693502,4.6925504897992445,-1.7692418889401003,-0.4408480240235246,-0.894244775259862,-0.08425161125318363,0.48311022809106774,1.6161159422007092,1.5817786202989637,-3.520519528752069,1.1510619057684834,0.129438721994014,0.26265860496016424,-12.804423050990993,6.929688577410555,-144.98311604126724,-0.060389613637631394,-1.0112047945076994,-0.10485102550926174,-0.16047656465933563,1.670124149689286,2.2405701367286444
2019-08-03 02:41:14.645259,0.3089071505632849,-0.1488834904750242,0.07047453608272575,1.5544882278074883,30.971836199964315,236.10855030636165,0.11292488109430424,0.98216488443393,-0.1772453724013912,4.695167450239482,-1.7846948141532408,-0.4151136628107541,-0.8933529046534192,-0.09785798480535288,0.4825304980063152,1.3740254086547967,1.4807933750915854,-3.5554011623568904,0.8384851375758497,0.18831094148461908,0.20742604738922676,-14.176497733637834,22.514320454790493,-180.42916576556632,-0.061340943694566774,-1.0105806974154627,-0.10562227503619769,-0.053202986589255055,1.828076740336734,2.345544352171006
2019-08-03 02:41:14.655259,0.22380502217478815,-0.15855049915082187,0.058429348515041786,11.168934474191332,32.85782990909185,238.33646253850782,0.11104080134429903,0.9820853168292073,-0.17867153954928086,4.959502443297975,-2.173018928938645,-0.2873012880756486,-0.8970874065010902,-0.10575055110897812,0.49577141209237297,1.9791849247169782,1.5627653556455785,-2.8824919905319044,0.7536797946734104,0.16785329080697464,0.19318849168263166,-15.516722369643883,24.93403451305396,-186.2149393405767,-0.06353717983208905,-1.0080980382071314,-0.10875429963869598,0.18426674461375409,2.1813130807029335,2.607341056102932
2019-08-03 02:41:14.665259,0.15871053587239808,-0.1793636465150272,0.051714673778786295,20.487118870352873,32.595883749066495,240.15700951098137,0.1063604584359018,0.981287709643114,-0.18295829039297737,5.4430546618173965,-2.4649246920752197,-0.20895651678261046,-0.9053070781202184,-0.08788333685997024,0.5141343137583391,4.2808629899151445,2.333622440724597,-2.1816129278654084,0.6426009728331543,0.14621630316959008,0.16991985215640562,-17.679874890829332,27.655221476156825,-196.62551775541445,-0.06095537162912055,-1.0106799785026668,-0.10249436462832644,0.514205756647684,2.381613301860275,3.2271868263720447
2019-08-03 02:41:14.675259,0.1366401791233856,-0.18022536710035553,0.04838144405534781,25.429793649662763,31.392694502356793,241.14965065087668,0.11571100912911741,0.9829525107254093,-0.17653515244396517,5.441923743226553,-2.4189838702823234,-0.17990280531605718,-0.9100887868266948,-0.07987413808713438,0.49626777427271307,7.230136529027934,3.210827645102755,-2.1010942331318754,0.5887344110743945,0.11795973289329925,0.15024544848976518,-20.121140445771978,27.112076962696197,-202.41953743790873,-0.053751740289472695,-1.0154570183369063,-0.09523958341370584,0.5254312957359653,2.087317363389999,3.368097069818021
2019-08-03 02:41:14.685259,0.1289637770896612,-0.17923129243007097,0.04738073931076186,27.63875499200597,30.683048091998995,241.5968852595806,0.11271816857337044,0.980558877293102,-0.16987317945901217,5.901515792347575,-2.877139099107709,-0.250256013696072,-0.9209472851395992,-0.09317449715835821,0.47859418814386107,6.991427085196346,3.6664766332284646,-2.461049837751925,0.6803142325069953,0.13770324742361192,0.1682395380361584,-16.188582460811578,25.580582845870026,-192.6935146622167,-0.051514464761147044,-1.0104942982196938,-0.10205495577880051,0.6708926146827507,2.286849093332701,3.7198450196341786
2019-08-03 02:41:14.695259,0.11217286056112963,-0.1540138575090011,0.03495447385555998,34.77031343128069,28.689156722244444,243.25561762385857,0.11315671902534453,0.9808908719839404,-0.17623549246533404,6.344117664532466,-3.071574293346024,-0.34043079232461954,-0.9199379719283831,-0.09203470318168303,0.4824973633896393,5.461076824896226,3.183459773790327,-2.5589859046354935,0.5347426351949252,0.09672904397707674,0.13719341149918235,-22.332797685621106,27.18353301365218,-207.6950094865189,-0.05821815522107779,-1.0021377960288247,-0.111632436756579,1.1060951767590204,3.3253215908457996,4.7786920958086005
2019-08-03 02:41:14.705259,0.07704535265236259,-0.0829425078476997,0.020806952136459927,50.900794400356055,24.984569827693985,246.5936179991531,0.11539604819007922,0.9817912860767642,-0.17568177184503936,6.707955082422623,-3.3990301385579285,-0.4818879738078059,-0.9176527276280786,-0.09944215784881238,0.49981441863016124,5.518008381404145,0.48389880882902,-3.2537292327067813,0.4400168335489072,0.08124927848634068,0.11961878889598003,-26.022897320772458,27.889845954648738,-216.2656989670205,-0.06660622130912257,-1.0064888727201156,-0.10852411570528613,0.9687546162007441,3.946260981094346,5.002459491772822
2019-08-03 02:41:14.715259,0.06207846673660155,-0.04587022397936207,0.013768092095415432,59.63730832549304,23.48608706249003,248.02738500074196,0.11237792534228991,0.9817576862023558,-0.18223225348561475,7.080761468391346,-3.8435039578897547,-0.6578159727259799,-0.9149335220362781,-0.13432273648088267,0.513313555251687,3.3405201367554977,0.18177337204574034,-2.53805090836744,0.36680006618652544,0.09767307429803178,0.10095688690943391,-28.93330084374184,29.15490504873703,-221.41089965284885,-0.07033444368762347,-1.0084628652453709,-0.1068923551255588,0.7847076984274705,4.236791861797264,5.122649841288621
2019-08-03 02:41:14.725259,0.04279759228741562,-0.052447640144930995,0.015739153538530108,66.93204377810561,23.149032445155896,248.99436953860805,0.1136095252999976,0.9832016998709044,-0.18906001838789283,7.512515795138419,-4.431510908855367,-0.8901826261916298,-0.9019829891405672,-0.1842192863234001,0.5138901426491552,2.5970232148691035,2.654283987593428,-1.555756367730374,0.2659472799085938,0.13924126282010038,0.06846290285965768,-39.00926629514299,32.59300421203377,-224.52986426475374,-0.06743730307839699,-1.007778380769547,-0.10977317792592102,0.7433991804873146,4.14520873955085,5.470191895079665
2019-08-03 02:41:14.735259,-0.006886347016811161,-0.0719523153743023,0.03702657057097145,78.78697251196982,24.303206543777662,250.83480056155972,0.11630314984738671,0.9835547241196214,-0.19098297496464156,7.581765825419225,-4.69884458230149,-1.0501849354563737,-0.8850593660722345,-0.18562281437748634,0.5074029686641415,7.245253589582047,7.0668692106811966,1.8426373836283538,0.19295561723802296,0.11943173850062846,0.05652109814626311,-47.22652545580504,33.309084189377415,-226.54421933328075,-0.05949659807800764,-1.0068017136777896,-0.11680779995201461,0.9254659732431022,3.729546408843647,6.158736493380564
2019-08-03 02:41:14.745259,-0.06163197453613246,-0.04139785170635741,0.024306231379366768,91.73037953523563,29.321376472460308,253.133796302636,0.11354420320885375,0.9801601560563352,-0.1952793315534177,7.850588721920055,-5.2686512895041,-1.3900498223172906,-0.8687706276967375,-0.15587838416169306,0.506470119332797,17.2916192054376,10.461401889445407,2.8499800879263737,0.10568740562443248,0.06539402171077048,0.055978173805442434,-58.03441935950404,31.175070606084795,-229.95204018433571,-0.05819081931642132,-1.0064058167965126,-0.12149572623909534,1.0931364396300076,3.5015847733370213,6.450136030406296
2019-08-03 02:41:14.755259,-0.08166929146087225,-0.01974559549727016,0.01675103148261889,97.00411881794764,31.418527103007595,254.14897306414696,0.11377655458532418,0.9818455331264884,-0.20023233686753014,7.926693593045391,-5.504753590541858,-1.4830547534068819,-0.8478343130750541,-0.14191125050125827,0.47994671861394944,17.19811742678234,9.658308347432211,2.2603290234337012,0.18956854674062848,0.08198563934032048,0.08037679101049662,-54.9514643241188,36.54861195593127,-228.4619566241202,-0.062397992864980725,-1.0061078343919019,-0.12252393860267949,1.2210562613452167,3.536075661853451,6.419813478059859
2019-08-03 02:41:14.765259,-0.0888471409810214,0.012793050227038999,0.00587559962134282,100.5253972797997,34.41188055648665,254.90451173218972,0.11500427408206118,0.9826277943888609,-0.20218666058527193,7.881625282412439,-5.654519333106011,-1.6752620064885617,-0.8707379749055083,-0.06935848873327424,0.44296945664533127,17.799356406833898,9.603498651928922,0.002517190343091242,0.027979082178436282,0.011757317805410714,0.06080214694748145,-66.42560513920904,28.330652405506026,-232.93820968752004,-0.06671385801711543,-1.0048323216330894,-0.12078188571148624,1.3765421660216686,3.75692426431245,6.436746304412649
2019-08-03 02:41:14.775259,-0.11490658964041853,0.09592467813873205,-0.0309313765631943,110.5754013609883,43.40126958709919,256.89224956735177,0.13034241764543042,0.9761934488107626,-0.18917876932228855,8.038334560721122,-5.81819674516477,-2.434371674032386,-0.8979654197840424,-0.059964267354591226,0.4356905230818092,18.3063220960422,12.070949356606176,-0.7836238166519558,-0.1922848575809711,-0.03385014686392945,0.017670230760897486,-80.64679987105923,11.659148826894093,-238.07495675582481,-0.06763564788562798,-1.0022895455965997,-0.11703858551283092,1.5986073516075252,4.090776260148738,6.733319972946891
2019-08-03 02:41:14.785259,-0.12314161482267051,0.07291423535183315,-0.014361682244588957,109.19273195959376,40.794295509892436,257.22488584690484,0.12825609553216266,0.9725050718438342,-0.18807058848617422,8.187763574293832,-5.837334900354473,-3.0729827083649077,-0.911080177943291,-0.1253446655638034,0.4377578502354816,11.528032712321371,13.114106296149895,-0.28136061265479706,-0.3268960658945696,-0.053232125309083465,0.006037479236115343,-91.88320375796397,-4.836958963596505,-239.64475964067998,-0.0696398561419144,-1.001128607454303,-0.11126568842165512,1.848282146615069,4.410737583866377,7.065805811052392
2019-08-03 02:41:14.795259,-0.1555208181029149,0.17911505269097272,-0.06659572823522551,120.15838473671246,52.250595142083526,259.3042760542359,0.1250328445660388,0.9740389085899112,-0.18578731323026812,8.265129914065565,-5.586159922685501,-3.4461919757994295,-0.8911004449410965,-0.11081819137744058,0.4369319187718895,14.794170348273058,11.956229969348783,0.5616013285640149,-0.3694045079826978,-0.07009360319321348,0.01349049260083122,-104.08610758242239,-20.065786251280223,-239.93863466301724,-0.0726704186517435,-1.0017811977962034,-0.10560616789715595,2.019204783820155,4.722223023645494,7.266278321256229
2019-08-03 02:41:14.805259,-0.20048183925296734,0.3523688465859064,-0.13121353313563058,139.7041304054159,73.92111635401699,262.07556314562976,0.11362567834885519,0.9789801319827776,-0.1905594061147344,8.786986846378026,-5.202468982125815,-4.598918664561926,-0.8795786148469212,-0.0850711374005456,0.440779471024481,24.064629618189308,9.897024287850538,0.08163483027728166,-0.3725192750126033,-0.09656755000348857,0.07735002919665511,-125.12104880012326,-41.056770145531836,-239.2063334739354,-0.07395358500103674,-1.0027217127593953,-0.10310220566450531,2.042846985264702,4.986779395906969,7.383631449711666
2019-08-03 02:41:14.815259,-0.26415804856618624,0.4693176332868354,-0.1290097877303046,152.35230098098813,89.88664974550088,264.6531060988298,0.12109297333204114,0.9806751738560878,-0.18684136863659,9.350027490963699,-5.702440076934646,-5.555996684119836,-0.8829545320710555,-0.0784492556935464,0.4382889693621666,23.438716988755406,11.111603791541048,-1.5467503767887476,-0.34841527910434583,-0.15522711891179772,0.1721777498650081,-147.56319563644738,-52.46523601968205,-237.21683692642554,-0.07856616956959642,-1.0035846823252037,-0.10410415737253526,2.072461025104287,4.597809890797287,7.726733069852591
2019-08-03 02:41:14.825259,-0.3643382367173418,0.5646618690652431,-0.12217225378940837,163.14822089467884,102.49568378216571,269.1573707807523,0.12702235654556823,0.9806097034838696,-0.18844203553495575,9.890217015649105,-6.226426246014012,-6.754755045379006,-0.8763852945549018,-0.05246159853835036,0.43323497627368657,23.60072568029295,11.399458289589148,-5.276578509305044,-0.3457675972808144,-0.22772317311904258,0.26344148469144263,-170.74615990815732,-52.283940407473104,-234.56402461752336,-0.07869647570349704,-1.0070638736917976,-0.10544633635665482,2.3244806325073024,4.167948674981466,8.059280539602154
2019-08-03 02:41:14.835259,-0.49761932775790635,0.673016055028895,-0.1282510264826534,173.04887558017518,115.59689770489209,278.695922052908,0.13651031870789687,0.9824885817998685,-0.19241977094682747,10.147694028805319,-6.364206947564781,-7.320462105133611,-0.8665609853053527,-0.03733887457118599,0.43978959856272554,24.262966495451213,10.032355911226873,-8.234538977050239,-0.36656816213732785,-0.29412791218041096,0.2837999432664759,-191.6761501545758,-39.87831368463499,-233.91554785123546,-0.07584404256067487,-1.0111937960206885,-0.1036329560696483,2.2714737237841596,4.157833483305087,8.187405483585918
2019-08-03 02:41:14.845259,-0.5977013924430422,0.7112392255439988,-0.09816214421288168,179.45883619778417,123.80847315813062,288.62765190558895,0.1274369760712359,0.9899464146695212,-0.2022358309586709,10.521255112077265,-5.713223428666704,-8.330586851349754,-0.8666916309447772,-0.03224138441579475,0.45789227238820124,24.633968410977648,10.353762822232156,-10.437872568687933,-0.45361663334414826,-0.3502457432981343,0.31121796505449156,-211.56163939901148,-19.39767491314786,-233.93203891346764,-0.0808938972383079,-1.0114454098198242,-0.1050733997080427,2.356631394375286,4.273506774747001,8.201634224592059
2019-08-03 02:41:14.855259,-0.6670422715159038,0.7443063490822904,-0.08181505748916001,184.31774504776268,128.89058696528346,298.03678645345093,0.12200402031953024,0.988743003068826,-0.21379975076105417,10.780455168582966,-4.619957831701247,-9.888573007042682,-0.8767452686480053,-0.054629459286055206,0.4505354867393194,22.61555100501457,13.965607842897672,-14.131331985546844,-0.518530765121222,-0.39697163396834645,0.31990936185227176,-223.17222958080364,-6.212600783099189,-234.01273192946863,-0.08833552132095139,-1.0081258502759214,-0.10766533512721589,2.6684628937824435,4.458633684147577,8.212178190001769
2019-08-03 02:41:14.865259,-0.811129411203757,0.8764515856729723,-0.04000590439705218,193.15411179245942,133.8177452302557,310.88772750377854,0.11643085199412116,0.984610687969751,-0.21841211011285278,10.94597624967223,-4.4642036385005355,-10.610356123459598,-0.8957932431919021,-0.0911140500086142,0.4206052607662399,18.83306369853157,16.069236928218984,-15.026483217349863,-0.5544599395461183,-0.4327028100008154,0.3177197061226078,-231.2284566268269,4.8520328304450695,-234.04607973886723,-0.09104158854872516,-1.0052750834803554,-0.1075899193838282,2.9279145588441366,4.712557264304277,8.242247377571779
2019-08-03 02:41:14.875259,-1.014112202141449,1.0226799688249049,-0.005410852206645995,204.4766782001845,136.6695300298907,324.6453826305821,0.108857484359653,0.9810202702883042,-0.22107577957594568,10.701143196250529,-3.8731250806929385,-11.439323388023,-0.9076772819585891,-0.09920693733105702,0.4230986803029702,17.27904941243714,16.27134869423968,-15.436627066559863,-0.5910410875487876,-0.46261009156389493,0.3159866569840048,-239.79944079727727,17.98825248912062,-233.78522532427397,-0.08908826619718246,-1.0050567555904026,-0.10509782480485497,3.03544859429486,4.98190842641658,8.27245704777771
2019-08-03 02:41:14.885259,-1.0957099387099989,1.093139050405003,-0.004359224689615381,208.18131577581175,135.18011708181348,330.6490843643285,0.09796479821118464,0.975342397906753,-0.22265609382634188,10.41251866478257,-3.5273616542528123,-12.471482481230067,-0.9160281617522797,-0.09731940342221011,0.4284858898920065,18.024460210182543,16.19661499699375,-16.673931199798517,-0.6237481029904688,-0.4899538511923681,0.304504428710139,-245.7169355614067,28.776943319573103,-233.22208734043596,-0.08665345256625033,-1.0062600678461815,-0.10216117366629614,3.0823666134439804,5.262048643648265,8.269705997161306
2019-08-03 02:41:14.895259,-1.2119012237966744,1.1949961706134324,-0.017198478821007265,214.89120234572948,128.3556069943961,340.85013663546255,0.08418723494036523,0.9781610049249512,-0.2282408492482616,10.118508818545841,-3.4474418905739825,-12.906682389331461,-0.929901559582167,-0.08562482660103235,0.4460327805951353,21.943180019915943,16.651508179005702,-17.355695319906992,-0.6926351606608279,-0.5551755111241006,0.3100024042343759,-257.43206178511673,49.51508775270741,-233.4089608732359,-0.08844209030961328,-1.0073422142327266,-0.1010164308169755,3.1905156561869683,5.552281601292847,8.199559852289385
2019-08-03 02:41:14.905259,-1.2954086038435753,1.3365184693710093,-0.041869437723477364,220.516250465529,119.62636729911105,350.5784357278532,0.09264930275236657,0.9933864934405903,-0.22609831527374577,9.917299322955909,-3.429223041508992,-13.118227975839229,-0.9563284259443607,-0.08433654339034292,0.5254496089701183,29.367714395259846,20.67584764105774,-16.57630134061922,-0.7651015845853572,-0.6286577044343834,0.35862350950087035,-269.463449955679,69.22505811806903,-234.72611368562974,-0.09383183168416098,-1.0075942082508267,-0.10205325249656388,3.363267607685767,5.817362688093496,8.111782306804997
2019-08-03 02:41:14.915259,-1.3582338214808425,1.465110943627497,-0.055014721894075774,224.79396181849356,116.73836824654909,353.66870710595873,0.09415075175353743,0.9928417603616401,-0.22024125790224847,9.691844039942065,-4.127873422662508,-13.37112074154141,-0.9419713935766391,-0.11939262722613517,0.484602727129364,30.380054272763175,22.392063602887387,-16.31969287931967,-0.797818366555747,-0.666833574871513,0.422542382474736,-273.8422830452005,75.95553378610809,-235.8882571975084,-0.09493200047989675,-1.0073254539204046,-0.10302189266831543,3.4224733548965474,5.955699895721515,8.168980951390061
2019-08-03 02:41:14.925259,-1.5648154842326383,1.6163309964385344,-0.07123134665766631,228.96803240299994,111.0724081283783,352.6811742924889,0.08601232966859164,0.9835282371559769,-0.22234876050185617,9.339014172057855,-4.188913571624717,-13.444163468577994,-0.9205661526113482,-0.1837347218663108,0.45658129911803047,28.079231749438062,19.16489191572587,-16.901136354314502,-0.8078364254262217,-0.681642987314677,0.4575156773520782,-274.4537670191066,78.29735900815761,-235.7323169994985,-0.09572513921453539,-1.0063400647117837,-0.10314782015399132,3.5562721436904146,6.125196430027198,8.312992655834854
2019-08-03 02:41:14.935259,-1.7060265167844095,1.66221283565642,-0.05433615849807304,231.54563075765125,95.98709953598112,347.534801939436,0.09686799473203753,0.9825876246519575,-0.21790968914770698,9.186113659809642,-3.7853839829461906,-13.553071629419321,-0.932448621144522,-0.20184675048976336,0.4811639442845019,24.399902568408667,17.96477253318401,-17.056040717903272,-0.810088287398446,-0.6860307353731119,0.4709610568601751,-274.0130085871641,79.13960690318433,-235.15036552496196,-0.0993847117683573,-1.0093798825391502,-0.10129389954293556,4.055369449595408,5.909936619853343,7.897359492849872
2019-08-03 02:41:14.945259,-1.8581843317553812,1.7154895953807323,0.056325354984762196,232.69908882210558,58.71995305845053,333.036546322836,0.10887468249874477,0.9853800302742867,-0.19531164923464195,9.48449854370488,-2.823788996503307,-13.962303802266868,-0.920237903722552,-0.20497503568970732,0.4448903119476134,22.204976224104072,20.644587110477808,-18.49694352821235,-0.8220445244423883,-0.6960207609904531,0.4811912743383068,-275.59551371680345,81.18818066520046,-235.48979868610095,-0.11910860861366102,-1.003353435469188,-0.10152593631787961,4.590390430280503,5.9080478851298315,7.741988503033993
2019-08-03 02:41:14.955259,-1.706563396946104,1.7074755735656677,0.04058532490842716,236.51882761372661,8.683664364929946,312.9758471731457,0.0989799748894421,0.9827344383252129,-0.19025530202524019,9.770507666084086,-1.7561535143387785,-14.265845920507303,-0.8968621782726269,-0.20711788342219525,0.40656964735481277,23.406219128670813,19.606962510185813,-20.199655860571237,-0.8609783958746062,-0.7280802850086414,0.5056074944483718,-282.18346568657546,87.0543939606806,-238.12637630149914,-0.13234101469007353,-1.0006783872890874,-0.1029252265792092,4.169794423182085,2.8345126770630626,6.226195535395986
2019-08-03 02:41:14.965259,-1.488813700485404,1.7196488329069344,0.07757370373471636,233.4406861479619,-47.49336880182788,283.43317244848373,0.06719295141051433,0.9876491323444434,-0.21631832528885983,9.9615928575912,1.0892151257347749,-14.329549743743296,-0.9015942466452471,-0.18794502598522272,0.4254454280060226,22.685699292627156,19.6874581884818,-20.42349033368709,-0.9388841851254442,-0.7933954898487277,0.5585764402639964,-295.88904940208545,98.65725252766359,-243.97499084292252,-0.1083349444670142,-1.0271147605883335,-0.07949230206856962,3.1467211181927914,-1.435160544123956,2.9305393502892363
2019-08-03 02:41:14.975259,-1.465670749063786,1.7830441744629024,0.14239958490846902,237.88311734019268,-82.97879309720483,256.2936307698146,0.030923000255435127,0.9904475514747384,-0.25332155517662047,9.957932443961923,2.930214051246079,-13.945833638784215,-0.9082992607149474,-0.14166836076570244,0.4329501795596715,25.59446543087653,23.395497587227496,-20.870098963224542,-1.0067054514370533,-0.8735089515516412,0.5772711473421557,-305.9402226666074,107.50428539943091,-250.488086843611,-0.09897372409466236,-1.0387482829898875,-0.06787184350169488,2.7685033591670147,-1.1056821529840564,2.5696616355772663
2019-08-03 02:41:14.985259,-1.2802154325039345,1.661632675642295,0.18305409142879805,243.0434913137649,-114.20081255881043,219.19038334834394,0.033012269549591355,0.988206726929206,-0.2664821595850714,9.564700222468808,2.8599432312031987,-13.453116153751171,-0.9064789082199048,-0.1661101492611249,0.4158091604387053,26.667932994203973,24.3656465029114,-21.617354284147684,-1.044263349799119,-0.9232820859222792,0.560878619376664,-310.14498464655196,109.63514975645944,-253.5345541009575,-0.09394335415889013,-1.043917347746696,-0.07858313876379776,2.2529683061155303,-1.3172664855895193,2.419226557195835
2019-08-03 02:41:14.995259,-1.1951137798993163,1.7147921375865651,0.3053182301019734,249.04588045340674,-128.74206330397539,186.42018101227265,0.0627006479815511,0.9843959203617528,-0.24600583446004096,8.977459294147192,0.7467884251318487,-12.441373039325688,-0.9028109169413893,-0.20083773183057013,0.41121881923373504,21.43513430682763,24.73208773004065,-21.663628261282927,-1.163014393701979,-1.0771713894169244,0.4607265803450556,-320.49896110897714,104.5804818508222,-260.5346107137357,-0.1083266983548457,-1.0276300418791977,-0.10797742618457687,2.472925289955403,0.09603443681645961,2.756321097063385
2019-08-03 02:41:15.005259,-1.137055036015844,1.752062060256523,0.36129347431650366,260.6017964184871,-124.3150942516811,157.75093658628026,0.08331615720322406,0.9833492691147363,-0.22764324050705137,8.768786260995967,-0.984863241539929,-11.701579119690244,-0.9083862006467202,-0.21141907461706042,0.39072532297554524,20.54845308096068,27.452688434016277,-22.887551398692352,-1.251966129186789,-1.171836616913813,0.36917199497829467,-325.2617561117291,100.88477297347241,-264.45082720977985,-0.11656356672878637,-1.0187037284396983,-0.12233276365520886,3.072181429315361,2.4014614782472727,2.872997528009694
2019-08-03 02:41:15.015259,-1.153364794732599,1.8425651224184059,0.4808927867148005,263.91158199179756,-111.54948669721878,134.8695350088124,0.08418686116433792,0.9788290872623416,-0.23067612161553264,8.436854990572744,-0.8094599529125964,-11.452277020658371,-0.905572297941373,-0.2077566051560007,0.36689254395865356,24.548700955014077,29.45744258516759,-24.422527009050434,-1.410780334564677,-1.3379420179160553,0.46530937532134536,-331.99190179607706,87.96035168855292,-264.2461325316015,-0.1408159036432858,-1.0305874536235538,-0.12155245638889743,5.186217944917682,4.361864376283334,2.328468983475793
2019-08-03 02:41:15.025259,-1.1750457239446728,1.91475234724092,0.6295634954877088,267.56992682606824,-94.03200298812959,113.25651285940698,0.07067483520710129,0.9747842840569382,-0.2420638722382205,7.6081232804127135,0.6498193892095547,-11.154747611884437,-0.9110715971474554,-0.2133706686409475,0.3710123793557305,25.62648621973673,30.258808845815278,-25.788116681257335,-1.5485269664066592,-1.5152884172173184,0.6634967567468315,-338.83838349881626,75.95980923919603,-262.77723988228144,-0.1379326785237742,-1.0289952815670005,-0.11523404717075246,5.325045617284928,4.993215885403985,2.2788432795224103
2019-08-03 02:41:15.035259,-1.1995030032557863,1.8355450502144182,0.7862912394079251,263.88889510015343,-77.79661428765839,94.06730000238275,0.0617265901306549,0.9812906222761063,-0.24712660574358358,7.422404574333052,2.2507437070783247,-11.187115821586064,-0.9274671121847323,-0.2259033592265257,0.3703736913507938,27.78805552705785,35.02360483642346,-28.638853073260286,-1.6299685767399001,-1.6367250700450597,0.9169083506017336,-347.6325297585106,57.72063642359848,-257.7063341409943,-0.12025692005427246,-1.0121685969491363,-0.09497858989439621,6.145939896426433,4.176898661380681,1.9383495125684747
2019-08-03 02:41:15.045259,-1.193578871428623,1.8166664803092125,0.9075584783363198,258.80001990139584,-68.18837670871355,73.97641321767509,0.054492562376660385,0.9857507609141626,-0.2516642315570253,7.2659644653770314,2.5389425726787063,-11.133785508347751,-0.9266707470063749,-0.2373934476015133,0.34416421019072685,29.86199563595034,36.5857524571267,-29.72901353444892,-1.7252063191617002,-1.6596712738465356,1.1950956788780707,-359.6121198112845,11.580046003230354,-245.01962362665913,-0.10074616016048624,-0.9929861084110426,-0.07746706283874145,7.090560416749132,3.0608454707893173,1.3943646086057837
2019-08-03 02:41:15.055259,-1.0505057255347552,1.6648037226201449,0.8697003257241015,253.52014085248712,-62.03806846244391,55.72029272304876,0.05176286875992652,0.9832305296204445,-0.2685065042725826,6.260027946364507,2.259057581580374,-10.88258995720383,-0.9408962203678204,-0.24437422133555484,0.3052854702703782,33.53715253005181,36.5799068987808,-31.6223895912674,-1.702429166065907,-1.5316371364275565,1.1935606340027154,-355.6838850422668,-38.23660230993793,-225.88279534603896,-0.08868533798790722,-0.9825849367282378,-0.0740611706697068,7.12180168147871,2.586572053092191,0.9764853832272177
2019-08-03 02:41:15.065259,-0.9067493831435057,1.5151872716331751,0.7830853443570476,239.64864333629524,-55.18125077192504,34.04436442532455,0.06428976527710768,0.9767426281798441,-0.2594754855351466,5.231471286363249,0.6287312466386413,-10.847736240398016,-0.9729093108703185,-0.2411059319817022,0.3164628036641319,38.590515377009424,38.63315248917726,-31.71576201046381,-1.589658953747152,-1.4877949016696779,1.0191945687208648,-353.9587195148224,-87.9852222300785,-202.1528738587473,-0.09117861268322061,-0.9809465122769129,-0.07075093699700205,7.085147126381503,2.560853430657021,0.6868604866557046
2019-08-03 02:41:15.075259,-0.8482814950503159,1.4455478619976587,0.680829078735881,232.00091941420928,-49.2934071322856,18.405383916384693,0.05947225604807323,0.984221514703181,-0.2555275475678955,4.753792088486843,0.33319248830883813,-10.859354496841835,-0.9842593896123857,-0.24531330842174523,0.3185943537623205,39.48959459114613,39.32864167537575,-31.74275653559201,-1.3874358824532798,-1.5466345444269878,0.9577631940108431,-353.5456530567485,-121.33390043000006,-173.0305372939887,-0.0900392333389055,-0.9837160573283285,-0.06862267822742714,6.8462906164037225,2.3300880337132965,0.3742888698432016
2019-08-03 02:41:15.085259,-0.8549541149405431,1.4105860834107746,0.601384688048903,226.10238268133696,-47.37084703440358,10.521829950851982,0.05307683167042042,0.9968852212677328,-0.25975321987276373,3.8374871958134156,1.1229079897971197,-10.863264594927099,-0.9897553057716066,-0.2549201786123217,0.3169951223126177,39.10007300726566,39.351218111031855,-31.736592887597425,-1.2660258733038448,-1.7381442004184522,1.3235518105967483,-358.57671119777984,-125.10546635347532,-140.2547450874981,-0.07904464926060757,-0.986622864784934,-0.07152238561177635,6.358701141821222,1.7890164216646929,0.1944028790466295
2019-08-03 02:41:15.095259,-0.8788760814476421,1.4582431306914267,0.44837348420428946,214.09549476941538,-60.73195366923946,-1.9908954185126877,0.04513721831636981,1.0117856723890946,-0.2702288827439364,2.2737219081676647,0.9064580580520173,-10.745289858271098,-0.9989289030463402,-0.2731354149511802,0.3137823711521561,39.83109296426881,36.66088907826479,-31.903578398339352,-1.153887075059011,-1.8800554757641148,1.7780549615579193,-360.82487269478213,-121.41397981193006,-108.68600126571428,-0.08912894751980294,-0.9879876120480631,-0.07611462152993945,6.442542381839881,2.0070727473040937,0.9081313324813919
2019-08-03 02:41:15.105259,-0.8991902437123455,1.5106079323852732,0.41013486038273406,206.89895959065126,-82.86991230762746,-7.1991494601534125,0.051293884874815766,1.0038430555489397,-0.2847155193411529,0.4571697516396395,0.3047730888191604,-10.629627367150912,-1.008917649528233,-0.29345768614692375,0.30528906158802627,41.24154687133779,34.09881221581506,-31.853279430052872,-0.9464673610415051,-1.8371908660545537,1.8260589311800763,-342.08409991182674,-117.7940991354377,-77.2723414961985,-0.07158653093514969,-0.9937314907494551,-0.08313345847137565,6.110589729078623,1.846719509846513,1.1276109748774414
2019-08-03 02:41:15.115259,-0.8860254964073772,1.4572937355795335,0.392844916139028,195.75425165720173,-111.12142137925765,-12.5332555293247,0.05851541803707183,0.9918004768432566,-0.28113586009506164,-0.7510195244180551,-0.010174830586532409,-10.66202252642135,-1.014891063432097,-0.32205134803130536,0.304435130069299,43.51302164739014,32.21434047426483,-32.927107428587256,-0.8396606376583459,-1.7980330869199868,1.7940812314062962,-340.6756016836493,-123.08665226985629,-69.61055586552811,-0.06692144542918835,-0.9927969713120789,-0.08044640615976009,5.985124605113003,1.7225339589507456,1.3203975496186267
2019-08-03 02:41:15.125259,-0.8186417608336454,1.3845725210745212,0.3915722628391087,182.52977611271623,-142.003461018531,-16.30450348229593,0.06802480378818668,0.9866773052545655,-0.2568035067796374,-2.8156752844602395,0.22847501774590318,-10.835911670653516,-1.0123230097440996,-0.33997088617981,0.28855415208720964,45.81494811347615,31.08242108725065,-33.08351990126691,-0.9487280469543528,-1.9029867711164195,1.939748236418275,-371.24296657311174,-135.42768591714255,-88.37851333164447,-0.07321390461917775,-0.9879780494402578,-0.07961353852340695,6.0754173105764435,1.7080071423605996,1.7404526406201561
2019-08-03 02:41:15.135259,-0.7269825366307274,1.3719291991443798,0.40034372988471506,171.57720235888502,-170.15991464523216,-19.12738107718397,0.046651511643461145,0.9851736328178672,-0.245301769528447,-4.3337308820066305,2.735350848115216,-11.159017012567666,-1.0139723755185897,-0.33681033361366575,0.2911793625141318,47.350539501630394,29.7213388666451,-33.64722115428309,-0.9896978589471548,-1.9064683758060448,1.9422270591290829,-369.09833418754204,-127.39202038705325,-87.08610954479911,-0.06968397816996551,-0.9771619956096558,-0.08897160744335937,6.092092813106992,1.7858179118372117,2.4523131363250235
2019-08-03 02:41:15.145259,-0.5988293813037268,1.3569292677645286,0.40995244782772533,160.81961089285767,-197.29185789860608,-22.48747246068813,0.033445475524991566,0.9832731849188772,-0.24223007941275157,-4.787364497523457,3.7198634493303335,-11.356578848547269,-1.0128130447406178,-0.33331926550980717,0.3016981837200075,50.60635335286445,26.7215510955137,-34.4613692576584,-0.6176073949185473,-1.5769832322065622,1.5174997195762363,-281.72921396169033,-99.98899167524402,-32.53559872708032,-0.12853814332701996,-1.010753435376696,-0.09044524558039929,6.633854320802178,3.3091082592001744,2.319640325307901
2019-08-03 02:41:15.155259,-0.48756115267042555,1.3277542958750885,0.42754613332348773,147.55659914592343,-222.57738842203943,-24.904641358414096,0.015777219288241842,0.9895620230396753,-0.24845969277294883,-5.2201330741154734,4.313688141439349,-11.159638077814165,-1.005394232284692,-0.3332346479985696,0.3098723639083359,49.71834699771625,24.275119879327686,-35.34662816084656,-0.5744643406816832,-1.4031029868828824,1.3107895228117936,-232.58928753469888,-28.468258266394223,9.40233497595546,-0.14112690161129554,-1.024823673897804,-0.08158875836735152,6.896695515652567,3.019103556830819,1.37798121821944
2019-08-03 02:41:15.165259,-0.5114766823003155,1.3629449410499088,0.36980524234744583,132.43045246363005,-245.36958068020408,-26.14233116816826,-0.005097481069915208,1.0127577793139877,-0.2613277518925366,-6.224652784546623,4.8862384320655075,-10.342260470014102,-1.0024850906718061,-0.3345007508584875,0.30971302341586077,49.72870059379527,23.482691793198367,-35.05109366536219,-0.5688508424240974,-1.330891959505245,1.23836349382388,-220.83849514646275,-7.0337523796616175,19.39696454711761,-0.15180246250035925,-1.0444172345580507,-0.07211907579534126,7.053053962489726,1.7452231595749161,-0.80657844040865
2019-08-03 02:41:15.175259,-0.3034369938764454,1.2640989090907953,0.36222055155204763,116.71706719125216,-272.14470163229265,-27.251204567900857,0.023289278695598596,1.009788745504242,-0.268212999163475,-7.109384364820312,1.381450295952353,-8.7857883891868,-0.990588407328868,-0.33177320831780316,0.3142565596032737,48.98574486534624,20.209067424031197,-34.47403253694462,-0.5535233278010767,-1.4741964512668473,1.693031333265143,-195.8927932645301,45.942973828161946,39.62762871563059,-0.1444936803357173,-1.0450435639046198,-0.06265757452734462,6.538562258304376,1.4679728241418812,-1.2712892075078153
2019-08-03 02:41:15.185259,-0.14659231438127088,1.1868428230208372,0.3852069890254762,101.45138631575975,-287.92362826400495,-26.587949622880984,0.03587427321233365,0.9728667874572923,-0.2599156898862368,-8.94796769600288,-1.5852929180436934,-7.258611161907931,-0.9964553863191956,-0.33683098997398725,0.31501993514127763,49.868284688061955,20.64180193908958,-34.34588018025629,-0.44091338748686176,-1.3773978985696618,1.611420629535786,-183.26346655476885,33.645504891321146,43.882923463175054,-0.13645317953816288,-1.043524264520925,-0.0525627782717189,6.132472196061863,1.2435107639449758,-1.7648813640906291
2019-08-03 02:41:15.195259,-0.04408024123258618,1.1524675137600546,0.3940402889501908,80.35922224220403,-302.10044384044244,-22.67183543173665,0.031262260043564125,0.9939859814631109,-0.2559223537587848,-10.380385826306696,-0.8633213069592874,-6.413492775632297,-1.0121827563371562,-0.33404543038387435,0.3155442821638516,47.72888717122313,23.714719299724294,-39.63877346536979,-0.36959215376628257,-1.3086947478328426,1.5333795325825168,-170.22084763606838,21.7277467473001,47.66658179655664,-0.13611272157211876,-1.0406180682470672,-0.049033348685237094,6.031652706562575,1.0420607064355218,-1.7197353011945047
2019-08-03 02:41:15.205259,-0.06436762184346287,1.2130134968561532,0.4297096586752099,95.09439874413681,-325.0577088586209,-25.355687878456912,0.060980729820038757,1.0201726332341958,-0.2636012406497472,-9.591423570285361,-1.62821655855162,-8.068985905791738,-0.9882404002035561,-0.35245523238260706,0.3202963087154789,48.804503128794764,18.718517876111108,-30.64487657581355,-0.33187569162869146,-1.286502898991362,1.494742327983218,-164.02994518228945,15.661045025841634,49.79313587114202,-0.1402633066840786,-1.0414888979371513,-0.04914538321886019,6.028666672108116,1.0414120372271962,-1.56774830064921
2019-08-03 02:41:15.215259,0.13880181089129776,0.9824311345101034,0.2949412742631206,24.338344872177036,-262.0498864363613,-5.3517916998548865,0.05412929084501063,1.013744019252595,-0.2665499683370053,-9.5573721879417,-1.39758720440604,-7.966988967219583,-0.9770322982919213,-0.35345749931801307,0.29437686661905493,54.66661957829303,16.02114518969954,-26.75691840658948,-0.24717689752282557,-1.2298905919483742,1.4384800671207598,-155.30351162647986,4.219120960134851,54.64451953260729,-0.14444916032437194,-1.0487161910578469,-0.0503426748487679,5.866825652707043,1.4380777308251347,-1.5298135098361345
2019-08-03 02:41:15.225259,0.09394275383718792,1.0349887326975453,0.3389829171708414,51.70868558816451,-297.97716635281597,-10.071042435279805,-0.05000621522356898,0.9633959363546651,-0.2488260468867574,-12.970918231184184,2.5257268819979917,-2.167068026861344,-0.9779467836292071,-0.36562798950332565,0.3038839955444563,54.39708937109779,14.883152904368524,-24.439257794154393,-0.10331229254869723,-1.1275447318281813,1.3413067935610334,-139.2040524750842,-17.366878844485605,62.275756868060775,-0.14271862268071764,-1.0550999405557557,-0.048284057139442345,5.255320233860761,1.9334033190672564,-1.4477974419323507
2019-08-03 02:41:15.235259,0.059727524159768224,1.0149733463488302,0.2925819227026909,11.71972543175077,-219.86836518993115,-12.30690824362317,-0.04906766928554491,0.979996702167888,-0.2311904270053331,-13.230028278539253,0.25118710599293675,1.3872526424767753,-0.9943030054291234,-0.3736838456827216,0.31802141518176985,52.5040701394408,15.253535151676825,-22.910685344276814,-0.02486558688646227,-1.1025368800761821,1.2825976057409079,-125.73160389247758,-28.005052585733576,61.12652688882434,-0.13454529099830465,-1.054928463141629,-0.03908415772405762,4.676849374975005,1.714544446565732,-1.2360068463324492
2019-08-03 02:41:15.245259,0.05151449799697021,1.014591504949988,0.29572422512117874,12.999693718450427,-216.23483447900404,-9.425437377920716,-0.030960942554488446,0.9975379710751889,-0.2333916691157277,-13.167099372025465,-4.128666148978202,6.645057755532059,-0.9888812153518398,-0.36443602669600994,0.2823082112428345,56.45783263095691,13.728097709151683,-20.469662780377572,0.06511802834129846,-1.1108652183421566,1.234802794712238,-109.98640696416197,-29.994459068038672,55.61890914760599,-0.12470494166527313,-1.061797288848242,-0.02974851131051203,4.599812016518934,2.099285233998682,-0.9718778353847819
2019-08-03 02:41:15.255259,0.0454472863631321,1.0109427131040525,0.28149000798610846,-0.7864598265774255,-188.35942673856928,-5.571430374041974,0.005180320680443751,1.0030590567932798,-0.22961314591009627,-13.498982710402396,-8.539410402534482,11.025208443180318,-0.9863568548290063,-0.34617208339848815,0.28781112608925385,58.26284238954902,11.169998640422216,-20.458909750174783,0.13031717645902433,-1.087534848782861,1.187997166844307,-91.164354236512,-27.631454758495135,46.510057690172616,-0.1199503346999524,-1.0608573693449215,-0.02735966696995863,4.4155468012011445,3.9399628586936526,0.15265859154356456
2019-08-03 02:41:15.265259,0.031331530299742054,1.0036426700557912,0.26624078097170284,-17.155276843717896,-147.5539103403799,4.427662447221346,0.00980146408017198,0.9931316077911476,-0.2371151917940505,-13.69939795952594,-9.76991394175757,12.681368755417859,-0.9901182433211798,-0.3434504991147194,0.3084155816933872,61.22639630816156,7.182928267819173,-20.27457728529873,0.15972045280243213,-1.0645310341950278,1.133373922694874,-70.43231727314476,-21.998703344672208,34.455959981417756,-0.13680823795188948,-1.0469166641493322,-0.035688037402325165,4.012104430751993,5.3461814568328,1.056016687712309
2019-08-03 02:41:15.275259,0.0034567352400717124,1.0041655413913217,0.2569135488886109,-28.244437555597106,-120.06468364026301,12.261790794125057,0.0193434275204791,0.9859544765428797,-0.24365789818832362,-14.552881264407013,-10.61736348015053,15.401024111873745,-0.982086407927385,-0.34352535000627576,0.30199606333634604,60.47672750737035,3.9749177025154467,-18.877156825290623,0.17189972556439456,-1.056575156766721,1.082629144751721,-51.413266622561515,-15.040458082212677,22.136437272250323,-0.1468732822054489,-1.0401282108694172,-0.06225175156639724,3.0823047016588756,5.809725528259474,1.6379316712495549
