Time,LA_AccelerometerX,LA_AccelerometerY,LA_AccelerometerZ,LA_GyroscopeX,LA_GyroscopeY,LA_GyroscopeZ,LL_AccelerometerX,LL_AccelerometerY,LL_AccelerometerZ,LL_GyroscopeX,LL_GyroscopeY,LL_GyroscopeZ,N_AccelerometerX,N_AccelerometerY,N_AccelerometerZ,N_GyroscopeX,N_GyroscopeY,N_GyroscopeZ,RA_AccelerometerX,RA_AccelerometerY,RA_AccelerometerZ,RA_GyroscopeX,RA_GyroscopeY,RA_GyroscopeZ,RL_AccelerometerX,RL_AccelerometerY,RL_AccelerometerZ,RL_GyroscopeX,RL_GyroscopeY,RL_GyroscopeZ
2019-08-03 22:39:27.252890,-0.12383304052158267,1.0541929422082632,0.3567426101619166,13.330883778265031,26.027541916404406,8.40213952931764,0.3426537728449639,0.9898390978937741,-0.20281278601122849,13.559798634653298,2.7313811284524103,-6.643751550035015,-1.0206502512108369,0.1303700257887694,0.16908199306361038,8.420943744759365,5.70407765295668,19.547493642943145,-0.22216410746573814,-1.177114976702667,-0.22845666901177664,-10.46531925679339,67.48854290455998,22.656024531369972,-0.15378602167873634,-0.9576840507197553,-0.3205754385848226,7.754879169367266,-2.1664710676525094,6.812095882204193
2019-08-03 22:39:27.262890,-0.13231569267126175,1.0739276799455033,0.4156795409623864,6.958035464835501,31.112364112753426,13.12008883409827,0.362185558970995,0.9756648984493135,-0.2478357376988199,12.486859201234079,-6.0916471710456985,-0.1445047063306264,-1.028949275463741,0.14282449155333576,0.16512266133417702,9.716015172337727,4.3259481295541535,19.120719348059563,-0.21624665059744594,-1.1830270093268906,-0.22741139392634308,-9.879314515886414,68.38711260801553,23.17079033406646,-0.16813095611686507,-0.9533008241431362,-0.32560515022582903,7.868371830851815,-2.2067355432758693,7.150486216605506
2019-08-03 22:39:27.272890,-0.1799223361364065,1.0713313486430855,0.4003538764081098,-6.769694692277438,40.41439736159283,14.91816726986045,0.3855871027338984,0.9590122746083044,-0.2962039795773781,12.201894321871572,-20.24899830415336,8.956556153646309,-1.0441728035296018,0.1502409003218609,0.16247918206162554,11.440348987603045,4.344157805428926,17.804632290527426,-0.1512980192292674,-1.1852637334522875,-0.19621504822914967,-4.347390251892246,78.78713343649274,28.27434962075104,-0.15542285266730693,-0.9605974084711676,-0.3089107720130723,8.097548797867777,-2.7479887319606298,6.7543332194690775
2019-08-03 22:39:27.282890,-0.17046079125711536,1.1305022130888118,0.4142003785301326,-19.766435274144293,40.40038628214584,11.328018344318066,0.39642970158876434,0.9518468774438016,-0.3019365860726607,12.49025975029126,-27.247112804473435,12.810413498006053,-1.0691378618044183,0.14902015862361853,0.16187528205872412,13.759850669858398,3.777288609151904,15.28576299787211,-0.05179684902908116,-1.1955997017565119,-0.1229135310862977,3.566246933953152,93.77430609278977,34.96330612656572,-0.15043616288982672,-0.9638043168619741,-0.30100982793039804,8.148024992554763,-2.46846711011889,6.509155387968707
2019-08-03 22:39:27.292890,-0.13368635914557037,1.1964519625641525,0.44464718908234346,-26.3377429609335,38.79165528973233,9.334972155658324,0.4011467471208384,0.9425921969108227,-0.30238306107038737,13.835844976367973,-37.953525890820565,18.7535740471813,-1.0662308720246743,0.14800830554042782,0.172140447970873,14.346955763845099,1.7699954996347693,14.525491388789417,0.04702613150470977,-1.2499999095917236,0.0012246127209614844,10.960982368733953,111.37189557751864,39.47006786087019,-0.16592240208607856,-0.9569732462467,-0.30922145291317193,7.9147189897169445,-1.3001065849387157,6.274083750430369
2019-08-03 22:39:27.302890,-0.15565167742970598,1.2301525030053124,0.45511153946553606,-26.8915826239188,35.84850192445596,7.921706129339066,0.41580564743977877,0.9504415986261862,-0.28880697949216827,15.634529584382891,-44.89458743481166,25.418155904881612,-1.0704957723579112,0.1427148628164995,0.16678172406883576,15.841049160218162,0.7627322544046523,13.410767735820114,0.16358780609391857,-1.3739923521423694,0.08666309563826402,20.339952135794434,132.3926069180203,42.7630251730818,-0.17405250935273153,-0.9532240908572566,-0.30903426913372023,7.692504815205511,-0.7019413263225192,6.20978168266888
2019-08-03 22:39:27.312890,-0.3251523083634599,1.2645937630182602,0.5048417736087036,-32.1827908630059,25.1084728046336,0.8086654076890132,0.4208930169095262,0.9485226705712075,-0.27756727598489006,16.538113804750758,-46.233760022208564,28.05664994219193,-1.072808836171329,0.14333679332784033,0.15257356924479057,17.37832759572007,-2.479144810050112,11.462963906914261,0.2541146065873504,-1.4029424663398276,0.1069151655520716,35.91319622182759,159.39267410507438,46.715315275947965,-0.1730864445594968,-0.9526980125155466,-0.3072934649933317,7.643771220836967,-0.32411935667997077,6.010246429648503
2019-08-03 22:39:27.322890,-0.515629781080513,1.280316406897983,0.6335061570163393,-46.6297398137563,2.7764075251388887,-7.710221083868286,0.41658568232106546,0.9357501409399952,-0.27325910975334883,16.45143644503111,-43.162040813599674,31.14624380537818,-1.066982874252029,0.16988322964700067,0.1584295345166822,18.726624591289532,-6.260320783311776,9.876228132093349,0.3128317436842984,-1.3183343001964165,0.14823910951068087,55.40993828644093,189.31749502646053,50.031299373962554,-0.17266872782332374,-0.955925943241981,-0.31049588967680997,7.514477467000129,-0.09752085867871106,5.553552366451322
2019-08-03 22:39:27.332890,-0.47734190810552424,1.333389380201439,0.6851152889943638,-60.10751804289659,-26.316937181871157,-11.40283376940214,0.3871433656461373,0.906755591304104,-0.2820572966269474,15.515408231220109,-35.01390540959286,33.58703754217501,-1.0710529854567654,0.1996640778094286,0.1644613734507607,21.79789692171564,-7.573080732763464,6.848082032420984,0.28185719475294246,-1.2747353070280343,0.19137597240415674,74.47516993872186,217.9851736183363,49.91776082032228,-0.17411209357349255,-0.9620902632429699,-0.30973522365521616,7.377391331469857,-0.20834979951704471,4.765346670020038
2019-08-03 22:39:27.342890,-0.3861909391452686,1.2990344377473892,0.6907729574127833,-67.89392260331311,-40.9391298417077,-16.57174704514015,0.3699736237723118,0.8937894376248491,-0.28339071061137644,14.966722569859794,-30.60748039962214,34.18764198156719,-1.067537006940887,0.22139957393113266,0.16300227166424253,23.737805508025367,-10.048007847601898,2.327178356763195,0.20268005623456267,-1.2997073401008359,0.24650261087038047,86.32484300031572,239.52353130729426,48.49448602732208,-0.17069351313675235,-0.9619039564325993,-0.3127973155010967,7.602445649169017,-0.06250144115328643,3.769834635824624
2019-08-03 22:39:27.352890,-0.26151366320839653,1.2187300102886316,0.7388714876147328,-86.59632842345329,-56.347648258417394,-27.00417732007703,0.33852589064891614,0.8853877138388317,-0.2780624679565838,14.559889154218991,-22.354480600541635,34.492569038392006,-1.0613519176468507,0.21443589011176944,0.15621630347540716,21.00945951874242,-12.248822372721428,1.4373305310547162,0.12779242374376318,-1.3335045333652784,0.28611950341148484,94.47604256923266,253.2699717729557,45.966638364035404,-0.16017900252809664,-0.9640247962180937,-0.30758776216974315,8.008686539859553,0.7362380998372035,3.030771211000538
2019-08-03 22:39:27.362890,-0.25078574151382305,1.2224067729904329,0.9057983267568009,-110.07743667498214,-53.61470136022487,-25.877256127463838,0.30088413290708654,0.8624011689556617,-0.2621362901981761,14.389448346988516,-12.40903439450506,33.88907025642061,-1.0623915078583044,0.21365686722951807,0.15662861236961512,19.61255969907124,-12.43447209834234,1.545389008868981,0.07377052511399126,-1.3449160790171093,0.2599908451519963,100.26130274061376,262.03128851149347,43.80294551793164,-0.16027048994046011,-0.9566714190247043,-0.30374010583158795,8.647869517769102,2.211414432574076,2.6768273251152497
2019-08-03 22:39:27.372890,-0.345459100308138,1.248199212867011,1.061903191167838,-140.6589422798691,-34.45646290967066,-18.839172369824432,0.24596839259300918,0.8659532563101846,-0.23187391132100985,13.37641034818717,-2.51008116884294,32.29480465416301,-1.0632741245433914,0.22377559921370854,0.1629715024007621,18.164259454354788,-12.598544313124522,-0.138046642989743,0.04503370640095784,-1.3447080951256414,0.228309012649465,103.64086366581155,266.19160012333725,43.03417702007782,-0.15763837248131854,-0.9587234213582536,-0.3028433711025183,8.665324451834705,3.5584017738694147,2.532686985070286
2019-08-03 22:39:27.382890,-0.43266601889233725,1.2710035446405428,1.1222080342937564,-155.230354906467,-22.468392352689463,-14.724577478791785,0.22338669814873444,0.8696555402144721,-0.2242147630511461,12.505163440149285,2.836010781633486,31.269156928130823,-1.0518278908003076,0.2263614334606582,0.15790857582273304,17.350614284803417,-14.503628032758574,-2.6541274689170047,-0.05663597012432237,-1.383507305062648,0.32119621837337803,113.5426200729442,269.88371507113146,41.62046259241178,-0.16680715032779114,-0.9624058147968106,-0.29790961661755583,9.007990633692186,6.293188524643804,2.8125036944760824
2019-08-03 22:39:27.392890,-0.445960755075338,1.289267013081794,1.115203728777973,-155.53657555903573,-21.911340359385242,-14.411620010954456,0.2145038920473636,0.8644264789898076,-0.2051230711094207,10.880549686031067,11.14410101263179,29.142617965777976,-1.0204568459121708,0.23409453487564377,0.15695346526123988,15.565951080217006,-18.784520602319446,-3.5889261873049945,-0.17612201329649924,-1.4399485356829969,0.4914930794515018,124.90901660549848,267.8820884775133,37.90288172674736,-0.16921050135756802,-0.9605300403412106,-0.3100133743707575,9.111739653953169,6.8421306544413225,2.8999817624222413
2019-08-03 22:39:27.402890,-0.4225671573831973,1.2441139078188517,1.153205176413071,-168.1169451355766,-16.36891913762782,-15.200003375872386,0.22381325581185518,0.8477607511920809,-0.19113923252393614,9.057609169154462,20.010421712800987,25.996120180382384,-1.0115071745824038,0.24444535795335276,0.15280797178305433,16.074671545053047,-19.843933180806513,-5.44598449335529,-0.2460726286026222,-1.4772510997624215,0.5276453588276301,139.25415767783804,260.543275174038,34.64157853398625,-0.17469088119297502,-0.9563856821485,-0.3067843203186584,9.209990063043714,7.079928258552905,2.7932595089515
2019-08-03 22:39:27.412890,-0.41853369125310896,1.1238728856037739,1.2745506875408887,-203.3289312976239,0.4039489186125244,-15.41120245574476,0.25810323098985116,0.815487342115959,-0.21032870327265832,8.198695904447396,22.99757249498967,24.487852905321603,-1.0139907299222046,0.2263118618886277,0.1436624044300458,14.824262722854161,-18.708276908191323,-5.910209148631249,-0.26114697152079563,-1.475478261205739,0.4879941370940432,152.25428121629946,257.317688671098,33.621680317096036,-0.17297200486411943,-0.9592949241908739,-0.30159191519195716,9.6583527030281,7.289620133683999,2.4602608928418803
2019-08-03 22:39:27.422890,-0.4743470588974654,1.0653582934447619,1.3190638516188022,-231.8399122651576,18.747996757676084,-12.143401394850692,-0.22455768079688043,0.8556266713362581,-0.21946308489373423,5.515112904312415,27.253472408012534,20.336923853146796,-1.0168460225097555,0.20661258583783762,0.1368539011171499,10.924097491645783,-18.768459274119472,-4.739368016413735,-0.32603514033066605,-1.4930762918992357,0.48684242648818227,170.31294655994935,254.03093752479668,32.88347182255807,-0.16451272598547925,-0.9630144379437565,-0.29438637665824824,9.960878439781956,7.202895570579343,2.3627525027367744
2019-08-03 22:39:27.432890,-0.4960281324170937,1.0046863973982723,1.2766738987054675,-256.7891284451331,41.64811818975879,-1.8820251024280594,-0.30254215896047093,0.9209445841297474,-0.04007070884297421,3.5879199963310207,15.315671472761187,8.58590536711233,-1.024567887041254,0.18965774939179522,0.12826512951166685,7.315862147485421,-19.252059907268645,-4.111613279072385,-0.34997947194814333,-1.524104049703154,0.5173765211655178,174.78751273470976,253.43958525269852,30.77326532528872,-0.17073643681719086,-0.9659104222538368,-0.29353847401470107,10.2184315074496,7.451082174724595,2.26288762313874
2019-08-03 22:39:27.442890,-0.5478273732742965,0.9499905407847585,1.1658272192986487,-278.91912358445836,61.00283995935487,8.28078079608648,-0.3425956150597427,0.7537374348815712,-0.1142270540880713,5.165973060324248,8.279487684669203,4.636944925990373,-1.023666283069383,0.193579916025942,0.13250782046441023,7.6205886141079695,-20.081513831570188,-5.344006765429516,-0.5142871124585766,-1.5462697376803172,0.48235560263320876,193.8659544493055,255.35658264335117,35.04457230093677,-0.17253513175826307,-0.9681736796381981,-0.2992652990311349,10.29976937582833,7.6461840109642285,2.0332261076631633
2019-08-03 22:39:27.452890,-0.5377101188138322,0.9149680504489484,1.1343778624634822,-285.7331373847548,69.53047958571103,11.299823162882763,-0.696900233837268,0.928542648828214,-0.10693942806411594,-6.198332299797142,6.361781950644626,-8.489780301786485,-1.020533679763488,0.1942943613495505,0.15140237215755734,8.019577658954708,-20.70925105079705,-8.098525469448836,-0.520128180800998,-1.5728576568518151,0.6550275902218289,176.41061224609706,263.52316446225666,22.368447262669044,-0.1758912701590097,-0.9574933621782535,-0.28764866378644177,10.7524138834218,8.147380943589194,1.6231373768336879
2019-08-03 22:39:27.462890,-0.5516340561883656,0.861353282003589,1.1911658960381375,-297.93326086421064,80.8487456395849,10.871124590779978,-0.4923929110456524,0.9539056125122062,-0.0666187403740415,-3.0818880493371346,-6.993742271742239,-25.217047604363763,-1.0309394618859495,0.18367274607813794,0.16737291715430247,6.0538500088677845,-18.554816165676584,-8.265349145513692,-0.643999930787474,-1.5555415047291015,0.4972001693365866,203.80214679086646,261.4166260621417,33.607097253569364,-0.17685810980538988,-0.9632040914059071,-0.2885930262325747,10.800653960668953,8.120223706277732,1.155555676192565
2019-08-03 22:39:27.472890,-0.6433572714398209,0.8562062059497897,1.275664854971773,-312.26192021552583,90.72852373685357,11.840243652036566,0.3202602981686249,1.0666433810066809,-0.3063521065926216,-8.978768835388724,-13.292054420087192,-34.549846745612555,-1.0361970718142084,0.17262280218762233,0.18047909017576758,3.5466165368791214,-16.25528164122139,-7.830512563913546,-0.9592136490289426,-1.524452232921585,0.10215637461740106,272.78751593574316,251.32373641637898,65.83120161016977,-0.1821898770536991,-0.9620666401790585,-0.28924649819753484,10.79922338813841,7.851599831637418,1.0250973657683333
2019-08-03 22:39:27.482890,-0.7422286612565525,0.8438937139473243,1.3191328196896128,-325.5945278123141,94.65091435713398,7.859732643613619,0.569808603927468,1.0127420216674163,-0.5708540443154971,-8.04704668917287,-37.1967284952792,-37.32036403496768,-1.0271346414171225,0.16586167137839272,0.17047505383844894,4.261917510138445,-18.439705100158562,-8.276107785452075,-0.8162952946957536,-1.535294334282938,0.2775683817429755,236.0936412599342,256.4213534501983,55.25731698294523,-0.1811223663131574,-0.9699014941655,-0.28009814999630134,11.075757326946052,7.4159954651576605,0.5249857523009122
2019-08-03 22:39:27.492890,-0.8116837763422879,0.8585549109305162,1.319621618742688,-336.2401476803671,93.76409277873069,2.888977159709256,-0.09566086837104798,1.2035808956402614,-0.2740239087372683,-4.281058491784609,-36.50101530478759,-26.780532699184313,-0.9996180399399681,0.14076186840334598,0.17088045672482097,8.556087785286358,-24.372915978457275,-9.711596153337235,-0.9419703618917783,-1.4920182447979218,0.1457293078938189,254.60159959776811,257.6606876715005,68.54418087872972,-0.17879637278596305,-0.9728499384963092,-0.28411093155087463,11.134091142824332,6.84699622733155,0.05414346285805953
2019-08-03 22:39:27.502890,-0.8470798384970145,0.8582691978354116,1.2868223819476432,-340.6763440633925,90.7415356047155,0.8308821651784355,0.018641194837965357,1.0993313108748288,-0.20324076531990182,-3.860652300416681,-28.3839553251164,-24.004608804602547,-0.9795013006950459,0.11392869773710348,0.17929543019852254,10.516469382319668,-26.166129463637777,-9.728580852286024,-1.0421529918052277,-1.4299819996885819,0.05569577704162093,260.5256023049491,265.02311477926327,83.64932702572867,-0.1706643125916954,-0.9720492102138462,-0.28308041220844204,11.074801134432306,5.858768929393577,-0.34742118135044064
2019-08-03 22:39:27.512890,-0.890151559018798,0.8424332526450413,1.2562667885719008,-346.6899271980204,87.28292589469078,-1.8512370689889543,0.15691496566045865,1.282446836747391,-0.11677852401252939,-8.714605772139974,-24.839380044516624,-24.703780095833434,-0.9809953958091235,0.10536449028061656,0.17699587690408852,10.316238126705072,-25.330518536088267,-9.566020118710629,-1.1947116459479699,-1.3610858525944138,-0.1907386650515783,264.04062336494144,274.9321821131448,123.71182577537489,-0.17428158989830692,-0.9737217084575183,-0.2903897623380084,11.406874028348314,6.046073839047834,-0.2253832437950104
2019-08-03 22:39:27.522890,-0.9739381217489346,0.800979562119457,1.2036676845764973,-356.0711460404401,85.08050783799331,-8.62031675979058,0.07779287744392908,1.1286690935632078,-0.10746289192831061,-0.2886763609897009,-17.63450036202639,-25.75253075587231,-1.0106038114114364,0.05667293823924881,0.14517249055218934,9.15017898914007,-22.6271731363094,-9.288957161391501,-1.2436668200591814,-1.2720275258628684,-0.42253506527806445,257.58699116290376,277.3452622723015,155.41975014164683,-0.1881501559493761,-0.9850568573835505,-0.29946903869299785,11.424579372979919,7.039113193146388,0.4648277638100847
2019-08-03 22:39:27.532890,-1.0245238548055857,0.7413673150126373,1.1454524546990785,-360.11485059296376,92.29873896334817,-18.047832094687536,0.10926885506660525,1.1734899838345698,-0.1515411911211869,-1.588327765329293,-9.992136337020767,-24.912294352848907,-1.0355632228924658,0.02977188057053798,0.1257304506049535,9.792822279258438,-23.032205228967108,-10.674993305566517,-1.2971699851452827,-1.1890368038855639,-0.5829962739068567,241.34368818292685,275.50987605351906,190.68998855644196,-0.19251892988304237,-0.9852206548573924,-0.3062555915247275,11.686951470731863,7.447529760346006,0.6935008414287266
2019-08-03 22:39:27.542890,-1.1111715478722726,0.6269862462446334,1.0658902709624314,-364.123744125699,119.42175593411545,-37.507654779180235,-0.06604880041069652,1.189803815696467,-0.15525905172193386,-4.328945201790564,-5.620941539714584,-18.361130554008348,-1.0697051189712223,0.09124631652239133,0.15918328681647598,17.888093147190496,-20.377977787200408,-16.208760251746615,-1.3848837021607794,-1.1313040277073274,-0.6381622220939169,215.96356589571238,270.4643496925602,225.8015770106481,-0.1827819629526794,-0.9707831708432374,-0.2919354092481813,12.399829320611808,8.408027064168332,0.8788616472335603
2019-08-03 22:39:27.552890,-1.2048567651137845,0.5580639496496222,0.9956099604464144,-363.5419959313196,141.5738804335597,-51.743337171149065,0.10447012943860468,1.005755272719004,-0.14614531276474804,-3.7096424177559815,-10.621312420186594,-11.266024420648575,-1.1218169927692048,0.15966931728149603,0.20556545918672361,22.58377918223407,-10.675766776638302,-22.208427260902802,-1.4140836690396206,-1.1050454463691066,-0.6472945676636332,203.74012490809477,269.5736771947714,238.74771947309122,-0.16113511918262924,-0.9582603992774803,-0.27751503610878064,12.677298189052143,9.795292130301174,1.1191292293449202
2019-08-03 22:39:27.562890,-1.2558919919107991,0.5106571275530954,0.9411210489923484,-361.9737377049509,162.81722317477895,-67.20649148785402,0.20108051406881675,0.9822595425770428,-0.1708935113609329,-4.554411011695727,-16.22546094420499,-9.883329056520669,-1.1400305855767896,0.1965163298957057,0.23071960619157214,21.901263559694485,-7.119877777173029,-24.29241019845801,-1.4457491536888356,-1.0228041042807905,-0.611620061111461,191.8736994826163,264.2750365907975,254.43174033542783,-0.15573932922711722,-0.9586425642424595,-0.26801305485165694,12.666421453008974,9.38405103407581,0.7861056304797895
2019-08-03 22:39:27.572890,-1.2928647846468584,0.47315751143071083,0.8631236138420837,-361.00601324208753,189.12282868253592,-87.9821264894835,0.18677722011947476,0.9539554279956736,-0.25860340540962123,-3.398468056727841,-19.336353626697417,-8.059782193113996,-1.1608954834528409,0.21547669628270097,0.25019930199686624,21.40074299770427,-3.605802232459328,-25.32713040588589,-1.4924281167534525,-0.8578503913781332,-0.577523832097124,164.8294609662317,250.33780511455296,290.52837572503216,-0.14839788185330674,-0.9616902973508172,-0.25339017911780287,11.93007412952874,8.765756352641818,0.04517994109473895
2019-08-03 22:39:27.582890,-1.3749028661786176,0.4201634391055732,0.6790908827871941,-355.64509481850195,218.2587087822683,-117.19026873186914,0.19751489884390588,0.9335069420216924,-0.2624680547408865,-2.9995066496689495,-17.0814174440049,-6.666006627560665,-1.175704212930433,0.23181864120500142,0.24126671182482395,20.73714557572945,-3.816796166957579,-27.004299249095883,-1.454151957545108,-0.8108200204110783,-0.6246862170347764,153.67663866121492,243.0568533202817,303.16609747180024,-0.14983935845829455,-0.9645448110615614,-0.24856009804544862,11.16357070946323,8.590301377527215,0.1028447279381095
2019-08-03 22:39:27.592890,-1.4474912560269908,0.3808912027395109,0.5328197900542554,-349.1225109482503,236.0229581159452,-137.06343839293453,0.24105670468786347,0.9340081223589125,-0.2514661286545888,-3.2946872407744174,-18.183204906037613,-6.668840764934888,-1.1509487374690326,0.25864420072040195,0.17824873476298128,17.88089941865944,-15.260784258108805,-30.186505114941866,-1.4389988152028685,-0.7478126520497755,-0.6657901366537898,142.98772538617416,238.15399101360177,314.3317318681678,-0.14481588335618595,-0.9685447287660253,-0.24746569742365288,10.478614322781672,8.414378110336889,0.23520697750668954
2019-08-03 22:39:27.602890,-1.4559351721221971,0.35406690003490654,0.47360994647160215,-340.4665218251198,239.1602917673602,-143.2933940764027,0.23262578341872292,0.920923258872508,-0.2846896429670366,-4.14532349868581,-19.300934240041038,-7.553889034277976,-1.0228837375683615,0.28591538365361463,0.13710871356554513,15.806859755239893,-40.44148355552476,-32.33238339096521,-1.4341814749429838,-0.6551556610797,-0.7135935394767177,121.07971347499208,235.14825394522083,331.1298331930732,-0.14019009809300045,-0.9694464338164873,-0.24575728772243371,9.981850244552035,8.153824423258705,0.2549892418456248
2019-08-03 22:39:27.612890,-1.5161284662939212,0.2844740216717098,0.32648986702670046,-323.60200983006354,253.60187902969707,-161.95602047629018,0.19243689320295898,0.9145219947678487,-0.32741408165459873,-4.911420963861518,-16.39235548688238,-9.052568909804354,-0.9588332928702066,0.27679756531577676,0.13307609952874963,14.466401161127893,-49.17115674110324,-32.21577314405093,-1.426173706148743,-0.6148273996412873,-0.7164479829420496,106.94542658588678,233.32446650535192,339.88726199493584,-0.14555547876435668,-0.9650170709104132,-0.24575375134312985,9.716869207680391,8.121169577461524,0.30999993649861796
2019-08-03 22:39:27.622890,-1.5673172739031644,0.24610133382551141,0.2501290632984318,-313.52704566588056,260.8320495782001,-170.34095685599075,0.18670383507414595,0.9223317876407345,-0.3182883973574255,-4.989591087951142,-14.391725546831003,-9.742483453722366,-0.9170977344803941,0.2512144923779938,0.13930479202342555,12.327604538545923,-51.06355049195314,-30.80218213227365,-1.456495291492851,-0.613700288440968,-0.6670609146820662,93.28424314653476,231.89412310622907,342.649047595278,-0.1564537264839895,-0.9580243105134235,-0.2517139937938868,9.634181848846456,8.351116456491784,0.46346173329914997
2019-08-03 22:39:27.632890,-1.6062342763682458,0.21747541493514688,0.19953229360481584,-308.7102560170272,265.29536245444746,-174.96692999343293,0.19278324906059904,0.9642807326603774,-0.2578367570213264,-5.421970535935233,-8.087922180931868,-10.943259439202212,-0.9081284551610536,0.2073549740276116,0.1437614818909253,5.685865911335488,-46.33601765223951,-26.35331912919076,-1.49307701324405,-0.5979474862642036,-0.6318002525782128,69.76213514137264,231.80299265644743,347.68805482785814,-0.17237722984066112,-0.952313758065617,-0.27452356619648893,9.673309925562407,8.08167312361063,0.7460917351942293
2019-08-03 22:39:27.642890,-1.6418460101325447,0.18885996087283485,0.1710684154689081,-295.6425425685413,273.947586966303,-184.69494757033613,0.19461559893970723,0.985103178280657,-0.2143531763374901,-4.830065530379701,-3.8087413522723894,-12.323900122108817,-0.9452913761928186,0.17154485071673387,0.17073641474876802,-2.3724055011003817,-32.65790510046595,-21.277213225125582,-1.4596732318070258,-0.6233869467379132,-0.621243594633101,64.34328836886787,233.5589176390351,350.2580263399087,-0.19636356348305806,-0.9555800553597815,-0.2933657012346148,9.445513569498944,7.75717109305249,0.9427399475943581
2019-08-03 22:39:27.652890,-1.687719352057504,0.17955198974975142,0.15310858187843426,-262.54681560249594,289.77285698285857,-206.2163595637336,0.17475977838023934,0.9868698441102525,-0.21641776663271323,-4.57700991699793,-2.8493825170370934,-13.147838916404535,-0.9570365659252433,0.17868021395771436,0.2125375660513147,-3.590380180127678,-24.306329299365558,-21.171127384965345,-1.4786696277914257,-0.6211135891203928,-0.6249198935059683,53.993679080223146,231.16560214503153,350.49444405134483,-0.1845089453455947,-0.96549757330477,-0.2635360771294333,8.302179781692988,6.303915649203589,0.7243564271419247
2019-08-03 22:39:27.662890,-1.716269467358416,0.24324773336573086,0.12491681401713745,-234.304617985371,296.67459396964114,-222.69888375639752,0.12850896962241554,0.9943735923413344,-0.2333815416690108,-4.382178967163247,-2.426958748595903,-14.024482800347318,-0.9584310724556351,0.17972607770217172,0.22545015426822085,-2.5796351788227176,-22.85020787816117,-21.785693315400323,-1.5263998876773148,-0.6054039072635983,-0.6903572350310838,21.240854837829282,216.34261317872404,348.55710949549797,-0.17012475921908238,-0.9697840721657907,-0.2426493210017422,6.049737750422613,3.5239950340540735,0.027655719766566722
2019-08-03 22:39:27.672890,-1.7001395331789777,0.29030596179361395,0.06705189410849355,-221.10554084502925,295.24661075432493,-230.9958051309997,0.10958163255441415,0.990807391799327,-0.24472743272717576,-4.1607947060382395,-3.0115598583846346,-14.198484189961352,-0.9662058744212616,0.16124065406083865,0.2157304169764619,-2.2469261251649826,-24.83745661161089,-22.310921361366994,-1.4826495348613047,-0.6858283738383596,-0.7449148206829272,7.72671010164884,202.26368128469989,346.58865221957296,-0.1795564776018801,-0.9738502029196463,-0.23661194947661357,4.749957120819836,3.0329527131626732,-1.4195487646539686
2019-08-03 22:39:27.682890,-1.692404842851529,0.34616111592922383,-0.08550878187450826,-191.85984451399756,281.286851337703,-248.8607894780311,0.10151677772771833,0.9833981589487589,-0.257254519887989,-3.4586550244980216,-6.19428588629758,-13.986000686238123,-0.9991305594686544,0.11499290708092372,0.19986075174741186,-4.39959088702711,-26.30509772633636,-21.236431874439596,-1.5229809625357411,-0.6992993814940587,-0.8027710823266213,-7.130597214121784,187.706884363064,341.3151401716403,-0.1848186494953677,-0.9712739271916203,-0.23217060423773045,5.722631189687486,4.700788397870202,-2.8523235746899593
2019-08-03 22:39:27.692890,-1.698385807444888,0.33755642108898176,-0.19507611777059608,-161.7572982602418,251.28973103658285,-260.7692629401378,0.12537089138024768,0.9898650075595242,-0.23045352640704056,-2.535614164651025,-10.372232374530483,-13.569865755506493,-0.9866750322210979,0.10924944409292019,0.20911090395397064,-5.287816577998759,-31.793485664091374,-20.282559841191393,-1.5895653744107445,-0.7170705347524855,-0.8632429083206393,-28.61648273524084,169.3776530442725,325.5588486226005,-0.1967837056568287,-0.9641120280505187,-0.24672840576441143,5.787456552394616,5.376084336939233,-4.474447878231979
2019-08-03 22:39:27.702890,-1.6793350415109733,0.28526873149668813,-0.2334023775741378,-132.84898931718328,211.0441306574956,-268.8967176963864,0.14822226521939807,0.9885987141966486,-0.21391371491952021,-1.9070663771306304,-12.369626429765272,-12.777482109630219,-0.8780336745045167,0.15084919605680813,0.17819962476777096,-9.483908430919007,-44.95242919714732,-26.240144115053475,-1.5974182817889262,-0.7337798434078685,-0.8827249545693856,-41.901101305523824,160.02700525443436,314.52401907719474,-0.21983795400512038,-0.9474009894764254,-0.2823388086083166,6.206795903424207,6.075720324155279,-6.607564817262051
2019-08-03 22:39:27.712890,-1.592243323275554,0.2446386531617445,-0.1849983158184108,-104.97338382151652,175.7191129043806,-275.568113665251,0.14570632915550713,0.9920347065493542,-0.21390120536243798,-1.0422819520248316,-11.329429134982972,-12.43646547911213,-1.049852599447489,0.06503304143992211,0.2906348144082898,0.7825128582592917,-25.972661587336432,-14.710549350140122,-1.5814548960114996,-0.729443464244292,-0.8733474727897644,-45.93838981841905,158.23528385468296,313.1842033884069,-0.20809761813448238,-0.955158537382696,-0.2591435691833371,6.2801751746412515,5.8466759086900835,-7.039310163337053
2019-08-03 22:39:27.722890,-1.4401463301039263,0.2375470478705899,-0.16979696690453833,-85.06019393721391,154.45580420001468,-281.6751124043994,0.14418717932718597,0.9892210003321841,-0.22109432790991396,-0.027517472066782567,-10.077591068720727,-12.355098794830194,-1.026601263028784,0.165944894554507,0.26519474490563616,-5.226405609044917,-14.165330755842312,-18.37454005311691,-1.55022895199983,-0.7130029043754004,-0.8410297057497584,-51.565973101142184,155.67743818387973,311.51754428062645,-0.19301135210092873,-0.9627502981817633,-0.23142555922766972,3.44778300478579,2.049481627657844,-8.762971443304478
2019-08-03 22:39:27.732890,-1.3408822455150287,0.2254959597122943,-0.2109834263674805,-76.20453277058736,148.69755378721365,-284.3192191351451,0.1597702732416001,0.9806194008202874,-0.220087131106909,1.7490981701801716,-6.658627440644519,-12.273827699511122,-0.9900475929118723,-0.03038984535051108,0.3226279797338876,0.007199902329950152,-41.867965231316234,-10.011761213698888,-1.4809313792904153,-0.6711079717685365,-0.8066870954339216,-64.04933768653751,149.36574538147434,304.7751951651192,-0.19713628182738877,-0.9616693027074491,-0.22866062939708184,0.9766636499206821,-0.9047681434324656,-11.558418514955536
2019-08-03 22:39:27.742890,-1.3292178933619168,0.17568453231041709,-0.28227675349835446,-69.96944522645543,156.264608719242,-286.5810183656883,0.15747192785088507,0.9797134605886519,-0.2108742484682604,2.642855710854337,-4.1659269454907255,-12.422246982329648,-0.9834391286398331,-0.026667958947708174,0.35357338429921986,-1.945087451738892,-36.1906037697756,-9.149069784806073,-1.3580242621699474,-0.5973522210356708,-0.8077316087285671,-78.61423122725938,146.2368797341154,296.04569030763736,-0.1961120771101988,-0.9639084258267653,-0.24349151795562746,0.6944018275082885,-1.5822236318619423,-14.134578926665574
2019-08-03 22:39:27.752890,-1.2935097339099908,0.10800457869006067,-0.3649911996790341,-57.62926149270787,179.178651069375,-288.77085829098843,0.13996095474623607,0.9763243958163919,-0.2127678623390923,3.6559978190544955,-1.8487754565568264,-12.608951571099297,-0.9772761017782498,-0.002554611938471621,0.37772289965229566,-0.19954079951503492,-35.380177998014574,-9.448252661195305,-1.3004978214390575,-0.5678230372790702,-0.8343959054386045,-91.6767480769025,150.46802906126885,287.9000511002996,-0.19236230771521706,-0.961741353601297,-0.24849408775509696,0.8370467912103602,-1.801998421019471,-15.105964626402221
2019-08-03 22:39:27.762890,-1.2445337569055237,0.08238442685655036,-0.37903697698948646,-46.82236384396872,198.00697950509954,-289.15706945518787,0.1232569938237123,0.9686668749979399,-0.23098054427539227,5.314535154364307,0.7769607359146219,-12.911349772423161,-0.9610005570310101,0.009878641244080718,0.38176060170723836,2.291193174952567,-36.441532306421955,-11.574763212209067,-1.240637778171409,-0.5538047227990003,-0.8675243043726371,-105.79568696670039,155.18907481058764,279.30984277652493,-0.17479871372910283,-0.9596498432981558,-0.24487808214393747,0.6004126842764074,-3.0612496753873475,-16.72708810257057
2019-08-03 22:39:27.772890,-1.213771541997703,0.07813179259908075,-0.3776445198820341,-39.53191970886613,206.83166184558908,-288.7661320919178,0.11739717247434563,0.9711188032195589,-0.24990748645015115,6.220103171962751,0.4712457748366027,-12.906623558318735,-0.8823656427665504,-0.0050021019129563955,0.4223063094154216,0.8520436066142318,-42.77125200398921,-12.225975652632265,-1.2225256765365375,-0.5487701089120298,-0.8920547696494597,-113.16729373717654,154.9950072175066,274.41525725292286,-0.1535505555326005,-0.964954616964298,-0.2372707027827591,-0.47402276717581604,-5.39154312528615,-18.533893185445496
2019-08-03 22:39:27.782890,-1.1749726307459365,0.0689173767539128,-0.37979425068464023,-30.234034712363293,214.2466968023451,-287.159857355755,0.1224918969740389,0.9743640476529785,-0.24949053494942733,6.7060103781683065,-0.3900779975607219,-12.875934136861536,-0.8805825714340235,0.0062374494406517616,0.4280524556157534,-5.765988156697256,-36.14905289443201,-10.227314298419149,-1.2392836670507907,-0.5450571306974419,-0.9097176568538168,-115.06495038591139,153.56445187575042,272.7040631296273,-0.14091743195929857,-0.9757954398228261,-0.24363962203962738,-0.2980347858093398,-6.789738754209888,-19.500223786115914
2019-08-03 22:39:27.792890,-1.1360883519951464,0.055115200511306146,-0.3918480573037954,-22.089537374885705,218.7858974073211,-285.03931276602316,0.12768466110277082,0.9710939533955186,-0.2595151467600214,7.36887194248303,-1.2122654804723516,-13.284687591147792,-0.8862565236312688,0.02926032519526941,0.4238123161316184,-6.763876809169213,-33.736951325730736,-10.3225771883757,-1.252812730500915,-0.5349111326681215,-0.9236738517899192,-115.64847963673942,153.47727084436897,271.8082383102348,-0.1379004411770095,-0.9807750505412839,-0.2403389711503612,0.044523999292687994,-6.902329920137395,-19.676343700018336
2019-08-03 22:39:27.802890,-1.0552388552012637,0.05396788242816763,-0.40575280813069126,-9.521174772813383,213.71938996839492,-279.70567552004104,0.13292709889529847,0.9652801233541208,-0.2685660351913778,7.819405243877255,-1.807536318371897,-13.495213419129641,-0.8242650784939347,-0.023058210343724673,0.45002956955063733,-6.120761279565306,-34.4498083734159,-11.465944159471144,-1.240515550052049,-0.5210229549922458,-0.9255728072521133,-119.912144607733,151.9301136582232,268.7356117482178,-0.1361823667243531,-0.9804809458978806,-0.25070447604511914,0.3204435612423452,-6.9851966029153445,-19.59835345387831
2019-08-03 22:39:27.812890,-0.9175340232057931,0.062486294418429754,-0.38643923898903076,13.26340609212944,193.5866336116316,-268.3454820084361,0.14262821278074728,0.9677662323406582,-0.2612167947934886,8.061007598950434,-2.1511334110404343,-13.791260371535937,-0.7971251322322913,-0.10446625637838051,0.45108392078981996,-15.037130673463126,-30.001016406649043,-6.997921088863839,-1.1829161637738839,-0.5075390920932873,-0.9074052148923362,-132.45484097199835,145.98608559527943,260.8297419660833,-0.11484505659407401,-0.9834708521917136,-0.2645005179438429,1.0911212050487606,-7.673940186334283,-19.096752514370483
2019-08-03 22:39:27.822890,-0.8257418273456829,0.07243226348056701,-0.31662091874580883,38.56923841857872,166.3373233292177,-253.65224692841426,0.133221559298894,0.9794263021322214,-0.25295133142868664,8.985919784747239,-1.3944415475679781,-15.044188022042684,-0.8097377190537525,-0.07939559823103527,0.4538859296756835,-20.245425585167713,-23.874639036603497,-3.550479075822284,-1.1203445427202618,-0.5140818496191372,-0.8748020068751715,-149.506797695326,134.93696225595053,252.08151288103522,-0.10709040931051123,-0.9872220610198055,-0.2606013199520411,1.2717588392861614,-8.540608652647467,-18.571130795594996
2019-08-03 22:39:27.832890,-0.74976371968528,0.06316492221434004,-0.267280664079677,64.16222427629518,134.0796294044081,-238.0821462120883,0.10271276164501503,0.9704220521408109,-0.29476535063965015,9.491298346542544,0.00496150772921768,-15.892921210013151,-0.8160940711826529,-0.0447913443338223,0.47397044097798874,-16.96883695000452,-23.12653478708612,-4.659995379240751,-1.0315862969254916,-0.4859350622872821,-0.8893765799279191,-164.2743680343802,123.04731211493562,246.10284262669262,-0.11481658049103524,-0.9875839176116528,-0.268983705537127,1.4182463218758765,-8.511376137252784,-18.309907485494207
2019-08-03 22:39:27.842890,-0.651093706192269,0.015351853970967444,-0.3187699054290228,83.75563039469559,105.97542131576047,-226.71108150529315,0.08712979341451442,0.9681923374407503,-0.2893939837981501,10.371205824002377,0.4300794507940906,-16.438544574432218,-0.8583652640250158,-0.003727507331005537,0.4509843646460418,0.7230847442415568,-21.44767681195097,-10.154398975651945,-0.9413645636228132,-0.44827027578331075,-0.8641092994501333,-178.27253085307592,106.24281519923463,239.3252786605255,-0.11491701370851432,-0.9851680596338694,-0.26558532167161186,1.5067263663671053,-9.454818375817446,-17.418846842499033
2019-08-03 22:39:27.852890,-0.6085059320890427,-0.03799353612417397,-0.3475339530180708,92.14670695089585,93.50681128413426,-221.90876806544907,0.09509949469460184,0.9747764952974526,-0.2476056530576938,16.38378366374425,-2.4986610743235853,-18.11919445172351,-0.823562845790372,-0.1491674191673622,0.4661917847983866,-8.723819142916737,-16.65944029426774,-2.837831755976946,-0.8889196716523018,-0.44012865157001685,-0.7896720251950943,-194.1265570091101,87.45780229854304,232.14048726414663,-0.105792693580492,-0.9847623549516376,-0.2547864201973489,1.4060564663207218,-11.126470787165609,-16.383772435638562
2019-08-03 22:39:27.862890,-0.5935437882477845,-0.058810653741001785,-0.3279294589692257,98.6403733852676,88.19158685290105,-218.19388614402123,0.08234337221484817,0.9573043450745554,-0.30111048690452336,18.997342900655187,-4.559573625363108,-18.440043229921415,-0.8670415064285483,-0.1276200396582988,0.4650665052159095,-16.400665213244498,-16.291253000620436,0.046910077088042845,-0.7931791354751913,-0.4218063784672462,-0.721360839248692,-205.92881789762927,73.14299173014369,227.27059336679662,-0.09423044685395933,-0.9832979760601515,-0.2553869097802617,1.2184932945121967,-12.147477864450835,-15.686997830799442
2019-08-03 22:39:27.872890,-0.5337289767426585,-0.08270930072415532,-0.26261306639683474,108.33959090787532,79.77782282344967,-209.65550349124524,0.07777385585681384,0.9571766192248169,-0.2786147421650773,18.513391721686467,-5.956609445289702,-17.979929834625256,-0.9335807731825562,-0.09066576432409212,0.46791023440586416,-19.098075316398226,-10.529399568916931,2.001744696859429,-0.6572579715198479,-0.33649364998816444,-0.6514477856773189,-213.80711262507577,61.91552675734502,223.77292477125778,-0.0761838223241645,-0.9761117127830694,-0.2479273815341546,1.7552532984319393,-12.915295270032956,-13.996856179401558
2019-08-03 22:39:27.882890,-0.4682473460440394,-0.09739092546774618,-0.18363661329653833,111.5014686512984,75.54217439206579,-203.88852640158385,0.10899403967071056,0.9721688520519034,-0.22515469865980603,22.19312862044111,-10.525447736334675,-18.253604892653485,-0.9287847723627604,-0.055438753743478265,0.4886807570041114,11.985259993965943,-6.610789956442692,-5.051639561644604,-0.5592044022997498,-0.24112495072428494,-0.5898367394704687,-218.85531738685407,58.35443768625683,220.56662738824656,-0.07947545514102383,-0.9752817737372992,-0.24606638541229284,2.231751204498284,-12.842236965850603,-12.116723641356566
2019-08-03 22:39:27.892890,-0.40720580049905647,-0.10469184758236381,-0.1324132402457993,112.74304728125134,72.96668249581164,-200.02512700805144,0.07882033322305285,0.9792572349946776,-0.2765039331781807,20.17030769024899,-9.417382746437887,-16.516476670883634,-0.919253512307305,-0.07362178263092393,0.4561619264857014,13.17912062717049,-6.8483127667978465,-5.1888109061786425,-0.5407185993657361,-0.19932148605983674,-0.5688446905333271,-220.6803092434478,59.3161458622444,218.57271769358948,-0.07855581209628783,-0.972444389959399,-0.2537625994834708,3.172209408357955,-11.884384962238332,-10.011148017564606
2019-08-03 22:39:27.902890,-0.30930923094376533,-0.1508861226112109,-0.06602965993662147,113.56635773376769,71.23676344338017,-194.62113848456963,0.06644335100073381,0.9814097968341052,-0.2772809288975297,17.19106571860627,-7.075580077025026,-15.35362722243957,-0.8950744240358663,-0.05863933527388675,0.42956025282762844,0.9254025497136712,-13.056315450258614,-2.0431033760695665,-0.5266661403592213,-0.17082600272940196,-0.528257566311442,-221.88409415476175,63.349608527366705,212.92601628621048,-0.09225670491140203,-0.97657655857059,-0.24049255247464263,4.626203912022399,-11.336823837226277,-8.055069070498
2019-08-03 22:39:27.912890,-0.25553700415591507,-0.20584533061066113,-0.025779345987264935,111.98142695997461,71.8857922178484,-192.54966372354986,0.051132752554370164,0.9746280373305118,-0.2904342942235372,15.041498346677308,-3.9638374717535787,-13.826983040024297,-0.8695581274061217,0.015504324479611052,0.457262352954026,-1.210031533278822,-21.95971188583436,-2.018209271801713,-0.4599504913759929,-0.1705773009557503,-0.48303260736009496,-222.76970213003293,67.49057708725277,206.98879460093332,-0.09892207105042995,-0.9799183467315636,-0.22835392129681184,5.202436981021509,-11.083200680373452,-6.9596774301382975
2019-08-03 22:39:27.922890,-0.22170315282801983,-0.24278633495131788,-0.025121436558341485,110.47947461526215,72.40543134127165,-189.53229811056127,0.06669884036556795,0.9858709416169044,-0.273200619886193,14.093706682782722,-4.173633709609403,-10.653684302792175,-0.8880579674406703,0.03831223224610376,0.488585831199504,6.730893648883439,-20.16164997078187,-4.702448008366597,-0.4176481957092348,-0.155169888230533,-0.4838845191658795,-221.6585229211531,76.89511899527089,204.30390439413188,-0.10092336868546167,-0.9792818869085859,-0.22873517762265347,5.437356699735352,-11.051309350710588,-6.811187870194274
2019-08-03 22:39:27.932890,-0.17677683120821538,-0.2793718772463409,-0.04268657100215776,106.75513335508583,74.73517914393479,-183.9227919394658,0.06746335263061627,0.9826113611482998,-0.2771970102104999,13.999917060201891,-4.354923744692965,-10.432696543192202,-0.9111605032629767,-0.030271685217016234,0.4499480908290993,3.7021785072869227,-5.2918980441663726,-1.3271939744140107,-0.42561991121223225,-0.1389327049251841,-0.47188918070893626,-221.0080393868377,84.38990481697081,203.79152242449146,-0.10467460749024256,-0.9772421912404475,-0.23427336122676484,6.244315912316641,-10.640366014905238,-6.258683585728639
2019-08-03 22:39:27.942890,-0.14319880365522608,-0.29010276002302643,-0.045416477102919836,103.86610416959374,75.96049648181442,-181.86777852971255,0.08504177381736326,0.9801528065694625,-0.2794447935627669,12.348574788176432,-3.5262478604363783,-8.885234954511926,-0.8991375380325944,-0.06463423426047497,0.4368102329051938,-14.543048549308399,-4.893413752115157,6.211621991344875,-0.38380058341210926,-0.06592494886538422,-0.41287046848413794,-221.72983412481713,99.06708069411269,202.39965104452295,-0.11108356160655478,-0.9783535605987824,-0.2326797860097207,7.362045588828988,-9.899455663722609,-5.171920396272939
2019-08-03 22:39:27.952890,-0.11402225250991803,-0.3157823841785181,-0.037490870085209134,102.45742085296118,78.73854141976076,-180.0834279842419,0.09053141007831665,0.9726255477065153,-0.28206512700575237,11.142832172445061,-2.5516534397466444,-8.085780509683758,-0.9133121173485808,-0.0036354442146355613,0.45264705071317624,-10.546268927948336,-5.437390176522773,5.762340769787906,-0.34140521415522107,-0.007478945891530704,-0.3614978617464596,-222.23668550335634,107.71523832594347,199.76452634460898,-0.10956688853194496,-0.9797662108360431,-0.22639993685708323,7.84484946014838,-9.682752106470591,-4.6604605171204
2019-08-03 22:39:27.962890,-0.05001438037062021,-0.3981732091070447,-0.03480485780203745,98.07346203412195,89.04456954295176,-174.25075058253077,0.09011359643988795,0.9654606581729884,-0.28814031096157144,10.641988742652748,-1.8986106169147818,-7.821598995308953,-0.9164367565397245,0.025542481310294313,0.4351724812763732,1.890117769928057,-3.7053682797166254,3.39960136985807,-0.34065946219460247,0.03228752142818892,-0.3374396698367145,-222.5431290537236,110.26118413494389,197.87581800560588,-0.06726901051768676,-0.9740613557255221,-0.21976868458996007,7.984144709748804,-8.723617717508303,-3.1540641780620007
2019-08-03 22:39:27.972890,-0.01888507052045864,-0.4540928178251063,-0.013281663746783707,95.08281384379217,97.72878659661326,-171.11923273319732,0.08585348723393949,0.961229493519356,-0.3019041227900426,9.787823114956062,-0.6681520628441447,-7.393844664223499,-0.8959760712373817,0.004750364267244354,0.3912939006842922,11.986333315242293,-7.8191550998480155,3.487661434337635,-0.2926845126904094,0.11193502506458458,-0.242508632365558,-222.5634108705517,108.80946633252691,192.26220801958175,-0.0791927277323587,-0.9740508698787326,-0.21413538188847522,8.19760663441112,-7.796682024214305,-2.4027277009470063
2019-08-03 22:39:27.982890,0.01285654997131741,-0.49722356863940464,0.019503874923893928,92.73947735625701,106.9578308089025,-168.05503491701913,0.07396766154386096,0.9618725046639373,-0.30239370408858074,9.115322089250018,-0.40127004703029345,-7.125151542883889,-0.8842754927862915,-0.013817899888075327,0.38652867281459097,11.838001974742957,-11.306385930041264,4.583285369038798,-0.24027968784135537,0.13623960169422974,-0.1912832821673129,-222.46793429043416,105.48198760471196,189.33708452873,-0.08199900299226286,-0.9732825867118763,-0.20990702676147482,8.194471917409825,-7.672890219598322,-2.2257044067407574
2019-08-03 22:39:27.992890,0.10027264184187801,-0.550103544776575,0.06682757602039788,88.1352276959815,119.29638591841746,-160.67749676794128,0.07292206994572288,0.967175855876328,-0.29529722858851826,8.867918509993988,-0.7243231272560736,-7.037814855184565,-0.8796250198713041,-0.032133506193710755,0.4067889858442074,-0.9598324933479766,-9.981284188066846,9.139604136911295,-0.14460970369839232,0.18800667755382552,-0.16111070923580206,-219.56224633991056,90.96023739351952,181.6969650072422,-0.08145202805418286,-0.9744466014291804,-0.2089410778158572,8.076616518403515,-7.1855876966566035,-1.9096534859981076
2019-08-03 22:39:28.002890,0.15787201232359468,-0.5587408697783591,0.08052295734853603,85.64510121836635,122.33600602058047,-154.3028238252846,0.07270812182107496,0.9798888910479736,-0.29513554006527065,8.840276907686523,-1.150258957653799,-6.623335879152924,-0.8803127641818423,-0.045377658752040646,0.43771815047672563,-13.781594438470309,-2.3175902785803815,13.541681975040916,-0.05353916630016771,0.3025198010791594,-0.12713727001822606,-211.89663227337516,74.29433808713439,168.4846662097388,-0.08799594176945448,-0.9801812882973272,-0.2124232076642393,7.966097365447929,-5.24778245526656,-0.8544895448773434
2019-08-03 22:39:28.012890,0.18855157318511076,-0.5581315636588831,0.05014650459017164,84.69648984204257,118.87034213483277,-147.33010235756927,0.060350995898074196,0.9776539840025408,-0.29695178478897044,8.69020463552731,-0.9288043971059877,-6.038866943299173,-0.8846214242661835,-0.06107783923609908,0.4324933351103325,-6.006262795280426,-0.46709822285694885,8.049745458874028,-0.03861415214839396,0.2957593606145906,-0.12313438486158997,-203.9417893463792,74.61332486684874,161.60143302768316,-0.0970800002865781,-0.9826924494314325,-0.21381858990594874,7.803124558994597,-3.053209145482924,0.05165360150699559
2019-08-03 22:39:28.022890,0.2624969110099193,-0.5441027127690602,0.015418166298882494,83.93235692569964,108.21229188463309,-134.9629296060762,0.05324934253077537,0.9778996325500047,-0.2999428965778785,8.19590404163813,-0.28734992951307503,-5.564848370167567,-0.895472621326425,-0.0205137352637554,0.4128700192930391,-5.2406204898530095,0.4279138822619984,4.313267709781858,-0.04777000959563571,0.25232338453127984,-0.11847778901193964,-199.8549892027367,80.50662456978151,159.55418062415603,-0.1164239723471685,-0.9847338837706678,-0.2106159889039003,7.813238612023679,-0.7213129871004207,0.8736722492540431
2019-08-03 22:39:28.032890,0.330247723500838,-0.4951287089519406,0.012335890584953109,83.69167760161812,100.07839192127567,-128.47923493297355,0.04933911245386639,0.9750113209214344,-0.29186810355303794,8.080709077837684,0.058109974973403006,-4.9241029396950395,-0.9352189279365275,0.08551916618512721,0.4199793892227902,7.885015959130207,0.023143262056400327,1.0864301290366682,-0.06349370874834781,0.22870369917347114,-0.09244135861648131,-193.2958497182431,97.99783825645754,155.7112883791498,-0.11746649077942599,-0.9879802338073027,-0.21193007611396156,7.777465317561198,0.1913611872985993,0.955191962713801
2019-08-03 22:39:28.042890,0.35459570502087356,-0.48160593142612745,-0.020119811458376453,81.8401393849946,100.74753628290912,-125.12142355506239,0.04550788078502817,0.9726810095927512,-0.29106362960645316,9.420874023130953,-1.4586283329270489,-4.013685391183414,-0.9583684879611061,0.10639982230846866,0.40572193640026216,21.183796960916506,-1.4235258287753023,-0.5661148535438685,-0.048119477864118534,0.2743460916075942,0.017053349834582773,-189.17380025160335,117.05802486647514,151.63810562218276,-0.12132487311661425,-0.9886182281817735,-0.21692784778573385,7.65570205301123,2.104555668463406,1.2375190304377126
2019-08-03 22:39:28.052890,0.3428736668175455,-0.5191507721824371,-0.06604334794164171,77.0910557619893,110.87754797752048,-118.61462370916422,0.0382540081946568,0.9731046496554656,-0.29489850349013474,9.695002531259703,-1.7937152896168003,-2.718683589051561,-0.9491182552405615,0.07807669345549477,0.40453113729552714,6.007703874859945,0.1893657015005855,3.416208370994327,-0.03743489401974082,0.2692199753461588,0.05147511883611908,-188.56022679610214,120.68047445077723,151.51361284411036,-0.12904415867934965,-0.9890690903331976,-0.22301536248451787,7.970084826190256,4.219326141346781,1.5642853272403519
2019-08-03 22:39:28.062890,0.3059481008996696,-0.5379187146438217,-0.08545892226320105,73.30557067068064,122.90451323412194,-114.13626596760734,0.049104370001429545,0.9738962899883772,-0.30590965092271283,8.913162658796482,-1.2213501027291405,-2.0284187538063105,-0.9432999905736169,0.0497424906011279,0.4343966514098702,-20.00444123000782,2.049505464219797,11.54951458768526,-0.06273075346552111,0.28859834986075605,0.0852394549378753,-186.46478337544175,126.73558834688473,149.1385739935148,-0.11779620005657132,-0.984139552322084,-0.21424975815036754,8.495343276703368,5.071036055573885,1.3731066742829647
2019-08-03 22:39:28.072890,0.25944018722921003,-0.5730896143835174,-0.0857412403170698,71.58372406619185,133.3644912209206,-108.66849986982587,0.07848219664689347,0.9703183226327315,-0.313087445194849,8.815844100785588,-3.0549623637802723,-1.2282150109343926,-0.9315285252505712,0.053751922229819546,0.4434126273998016,-22.561666679443285,3.2207517210864096,12.677794770388314,-0.09785244565662193,0.3695823232329847,0.16211161149900472,-179.16161323821393,146.1803699713952,139.97833339387705,-0.11313832270402473,-0.9797788010135853,-0.2156418185943682,9.101562991093877,6.08833036067252,1.0278045038159658
2019-08-03 22:39:28.082890,0.19688083226566327,-0.6523595015066831,-0.03460209116585879,71.50040298027062,150.28084970906693,-96.47336748566929,0.08048450340187281,0.9665445118144049,-0.3090502231476573,9.0373629038589,-3.998275362268868,-1.0806879563501284,-0.8941039054530178,0.0667200374861277,0.43978181014198636,-24.064132038046026,0.923395216810312,11.233092296906985,-0.05449118123642571,0.3855702535904985,0.1767244864060296,-173.4578298701716,154.77444515042654,133.70627223014137,-0.10795706839624723,-0.9766757449415338,-0.22290711766470375,9.517998377562305,7.688867172816399,0.7790797270330102
2019-08-03 22:39:28.092890,0.1718776405377644,-0.6508427258277323,0.025495925230130556,74.16224760957563,159.45329342138356,-86.84843660911656,0.08019379062034497,0.9641252707714705,-0.30911885775810477,8.478879896918032,-3.4805165506002256,-1.0204099409783958,-0.8662116642778107,0.05436707581008826,0.4408114794822446,-22.911243140386418,-0.9128094958078126,9.552634072715579,-0.031609172389875644,0.3728366317883653,0.16526997996752038,-169.2226983823629,157.42004280750285,128.99398344349947,-0.10936156481575383,-0.9796413244521015,-0.21998115415185693,9.757889146885326,8.522542115583045,0.5348159786423926
2019-08-03 22:39:28.102890,0.13813012053852108,-0.6026214632106757,0.054132297766993444,75.828767631544,163.28533584965112,-82.70363805159927,0.07675710681474886,0.9752956341566078,-0.30109009339601994,7.414149962670863,-2.5477255808276746,-1.3125302936716483,-0.8365104171259692,0.02750015664867762,0.4432171068230616,-23.430613455393427,-1.4037749875994618,8.348275037206696,-0.03802967161631813,0.345050942412293,0.12978856061299127,-161.33945052641357,162.7241959525511,118.67458462797181,-0.11305370492161154,-0.9799848806729786,-0.21965070763099623,9.831177278905358,8.638309378550888,0.46217249326333776
2019-08-03 22:39:28.112890,0.08073623519598211,-0.5456944460436713,0.09115464449723443,77.46547390108378,167.88679546260937,-77.90980049161553,0.07157856517877956,0.9793891085111084,-0.30089325164653125,7.10424059118878,-1.7731199283478238,-1.585081530958654,-0.8308988212411713,0.00018562841839308569,0.4492103843680966,-32.71997876547845,2.3941913564884962,8.638073228367368,-0.07754249555075993,0.2735895145217429,0.12529637154688725,-159.75157611056676,166.14750949529721,105.72565325687877,-0.11760568819951912,-0.9827224742526355,-0.21691776394611129,9.972824554448437,8.531014574152984,0.44158410674150916
2019-08-03 22:39:28.122890,0.04002097678922312,-0.4825915824511683,0.1590988388119074,82.45050018688526,172.49441747270134,-69.0528951284931,0.07837327617021425,0.9688799756940062,-0.3059071763356671,7.121799630068542,-1.7647119144423635,-1.573150462830961,-0.8688683323592011,-0.0029960841619975035,0.4796979525390334,-43.96847616669714,12.61210653280041,8.645755598880429,-0.09651010571390534,0.21737857449567333,0.14714339866128967,-161.90463162961942,166.95384867313814,96.69432545569744,-0.12592384209242538,-0.984846014199248,-0.20462830903593904,10.068288016699823,7.6842040216403795,0.07078463612070938
2019-08-03 22:39:28.132890,0.048291909604795284,-0.4915092572055903,0.23483903252473876,92.41716753669027,169.16350540037521,-62.09775678432722,0.08403343644838993,0.9593760378942586,-0.3007520527859269,7.13484541874455,-2.172415500228525,-1.8233103499226055,-0.8840171659809036,0.0044902609887350065,0.5075662053407756,-37.01840200579572,16.21265770097162,6.600525867972328,-0.1476215589833549,0.19534203846526574,0.24600425927939906,-167.6004958599299,161.42853584704352,86.06096386681348,-0.1325254945093431,-0.9805461339119791,-0.20765538757516494,9.676202785514265,6.784425456877079,-0.5469553967411832
2019-08-03 22:39:28.142890,0.12188682376151178,-0.5345245177761256,0.305752697568282,108.05538988814095,157.98665499595486,-54.2265986547401,0.08991231454748308,0.9583243058218343,-0.29842633809863495,6.965326284840076,-2.023140212468045,-1.9877044552550382,-0.8802734162842399,0.0020413393982393418,0.5300914115997527,-36.50215269657714,13.56877378402369,6.119924903434315,-0.1709213177089168,0.17185483279496983,0.403684266206456,-179.16233564041121,144.62698445701332,66.2453206027649,-0.12510156844214318,-0.9765766017462237,-0.20217535103522719,9.242852431096738,5.126163140077461,-1.3791396856442086
2019-08-03 22:39:28.152890,0.20288223476873724,-0.5608640734128432,0.3116609806340679,122.18707753110738,141.13536893640912,-46.42817739803964,0.08675705546374599,0.9594514477856021,-0.30962790169226007,6.83246131341157,-0.7851228188093397,-2.288816226361108,-0.8805763569156009,0.007393798634646219,0.5336981939696677,-37.175489288421275,14.138484002378643,6.316935939872201,-0.1715058440218896,0.15915760946035112,0.4666182550784176,-187.62388662828772,128.92820348169613,53.20640349290738,-0.11660752612640392,-0.9715288627533455,-0.1997195196582982,8.815187618257124,3.587104742637428,-1.9991312734613584
2019-08-03 22:39:28.162890,0.20099567215312888,-0.5343543468438049,0.29810247807741724,128.29810849953137,130.14597025333583,-41.8858761004562,0.07893270517202233,0.962947261540285,-0.3131970301091171,6.696699349810331,0.9378209733271626,-2.8598501667829788,-0.8896358183227933,0.029376762672655,0.5382743036933161,-39.10713255358413,15.858658125318229,6.833115823595969,-0.22011230087834632,0.1299392643497206,0.4886285662182217,-194.19148688472043,120.66145676010336,45.186720854731334,-0.11157970573781129,-0.9717541284844466,-0.203328705291725,8.44158197635595,2.3625667492931286,-2.4439449387851044
2019-08-03 22:39:28.172890,0.181101949029783,-0.5162834000149144,0.2803577354510865,130.2809382435633,125.29621991282491,-40.063177292563786,0.08104916211389795,0.9664105304471056,-0.3062021629384095,6.602348632255399,1.4171705788006352,-3.05589915117952,-0.9061162216700466,0.056659115338813175,0.5484826572997702,-39.11992199978849,17.809597678312016,4.402126764263663,-0.2689397147629935,0.1401998967573758,0.5073427568710586,-205.49783418982608,109.87948611940732,34.605145962048326,-0.1167729938080795,-0.9818430604749632,-0.19720831832470637,8.166768567100936,1.6079623201929072,-2.597124309065419
2019-08-03 22:39:28.182890,0.10506988721875256,-0.4762254856390783,0.316304789241587,140.13671544094552,115.06741737084735,-33.72089823758117,0.07573546314511885,0.9665237544010302,-0.3118237116160193,6.711518274487982,1.87849605947491,-3.0388765376863294,-0.9001754679705594,0.05886080509042311,0.5469029105752259,-35.11115043730084,21.21862132628291,-3.308536273446243,-0.2987813089814421,0.13643368977642645,0.5304876462008339,-216.21693694243686,88.31453478626494,22.121480335743623,-0.12104170607623539,-1.0006138693305007,-0.19817625210100132,7.125747043725505,-0.40205727851355055,-3.056883046015944
2019-08-03 22:39:28.192890,-0.05007487153281775,-0.40728659298142533,0.42845506148422174,167.00964953899376,89.00709013339954,-18.31273246763771,0.0683096149182709,0.9667228106341554,-0.31841713423297174,6.6942202495136165,2.9141688392303293,-2.9784480081298446,-0.8759574441799509,0.013988884044935684,0.5382048380194062,-37.38113425695363,21.83606693769891,-7.207856413129755,-0.2745224471748778,0.16696608476808072,0.48430037328506154,-220.24353693601557,78.72423511171874,17.425758607430204,-0.12010654017479955,-0.9955690806232615,-0.19974231576482773,7.037669971906361,-0.5567710296418286,-3.057943310907239
2019-08-03 22:39:28.202890,0.05734021720282079,-0.2767192802443372,0.6320469503034727,194.72104628169143,60.34052589515878,-6.221009742709504,0.0746587672360782,0.9666604541405484,-0.3164354063421524,6.240877132787643,3.5729616905850667,-3.020243359245296,-0.9019759806005304,-0.04344298443428327,0.5023284492259599,-47.05125930898473,23.57284057806543,-1.7220323859003408,-0.31742864569813584,-0.030671100057767395,0.7542931363573637,-231.67099668006938,37.8904737689584,1.8532743058694165,-0.12171520058458728,-0.9917705045339127,-0.19806257256673288,6.941746069018093,-0.7420262365288879,-3.0167324169517307
2019-08-03 22:39:28.212890,0.060680624318098175,-0.24782226280664776,0.6394541630510008,209.66243486896926,44.529794870802206,-1.7760353232464459,0.07317046794831157,0.9734683575197352,-0.3146036584799706,5.669474844588473,4.027628917996598,-3.067134973386608,-0.9379163690658157,-0.033187564313402,0.4828452416035582,-51.750658744693744,24.525283844818524,2.8120599630238745,0.35759152286487905,1.202388463741378,-1.253053089815365,-223.3354043741503,12.799104823840738,-14.331450546695045,-0.11872478604201067,-0.9919873246916395,-0.20094013230086105,6.388616792142536,-1.5008148043486733,-3.254121264444654
2019-08-03 22:39:28.222890,-1.3636506259949441,-0.8958025582758644,-0.2071049742458736,220.5333446202106,31.362999405781945,-0.6927914137673968,0.08479664866190609,0.9706622625771876,-0.31460256916447504,4.861070404838861,4.699727221175984,-3.6635726749787008,-1.0125875770373702,-0.06772322707262463,0.377809316081257,-39.0765445223579,25.490164706604908,4.896089617032926,-0.95200652521948,-2.1127877734213008,3.3818194122175873,-262.38540234628107,-40.89612217485665,-18.606306582246187,-0.11093943568074728,-0.9918413481053968,-0.20193038235419683,5.7834997473998,-2.275327090134137,-3.6651303953070835
2019-08-03 22:39:28.232890,2.93362540509886,0.8051210983175693,1.5527168445816015,235.90342183732918,17.73588311481465,4.831636577123147,0.1162526815451172,0.9431118979754307,-0.32847979467179894,4.454176823617648,4.955642635957053,-4.4778344603668945,-1.1159807979982719,-0.1531671183248423,0.06300003029507353,-32.81607746231693,14.839571308357042,7.992417461245057,-1.6340429327943293,-4.840773597590336,5.739170584705375,-154.19653453734577,16.47678119763497,-49.535444899721355,-0.09584992535505094,-0.9933308958790898,-0.2042199217767391,5.636827668060299,-2.6618979087747268,-3.5624902887741268
2019-08-03 22:39:28.242890,1.7943587552088176,4.296441124299764,7.081672726307301,231.26409175238481,4.847894120944474,-13.663025159796346,0.10054092281697852,0.9683571696617753,-0.3147901763677696,5.1057899159052225,3.601030812114422,-4.914253278710422,-1.0946429723787114,-0.1525052249979413,0.013982770823051306,-30.18311975215985,2.0925331208399616,9.180839637102618,3.1890279957837504,0.28996663254887206,0.5734936069491049,14.921353414490433,-180.13095999121737,-16.259050176431757,-0.08859664820877983,-1.0122700427840492,-0.20195957676262996,5.268462977853227,-2.611483149850036,-3.2765891701456082
2019-08-03 22:39:28.252890,-2.113902600919294,1.2847376588406272,0.37698644017214683,-158.589462196316,451.661891366856,103.52476941552666,0.0661373634455671,1.0015974293465837,-0.31171186923741295,4.438181272508622,3.686583114761212,-6.3505814998886185,-0.8311583737930278,-0.1253418154897018,0.18358661356272887,-22.773631962571837,-17.661838658438406,5.149368574312355,3.093944894538808,2.240129667616145,0.22080000237264252,100.52162494909864,-245.69559936200594,81.14818882846747,-0.09892075939113149,-1.03231525523591,-0.19620626420435525,5.021944759675757,-2.196978627054633,-3.0141134559063576
2019-08-03 22:39:28.262890,-0.5893393313880185,-1.6004008793835462,-0.7854012413843796,-142.30771510398043,90.89028990425196,-25.25585311191339,0.04811530525394507,0.982001428498205,-0.3267081014565085,3.7475149796497327,4.398924221957264,-7.1016746164198095,-0.6920572831588644,-0.09604156855065454,0.5319627404139048,5.268111054566861,-32.418280010517165,-3.8097563829599967,0.21301663571400187,1.4949604305294784,0.3593591212233875,78.14832083079847,20.832327036671572,90.83008359355279,-0.12720104882071032,-1.0524227098470054,-0.191991497380948,4.877227442616876,-1.962324170377361,-2.644879439879451
2019-08-03 22:39:28.272890,0.01783314669947849,-1.3135050716915977,-0.12121556103075513,-108.83814149150747,-77.49338185284255,-56.861381894442125,0.04273709245056051,0.956156248132075,-0.32213829511160047,3.379143007077214,3.82317508167484,-7.4349172893210325,-1.0956417526536466,-0.1131234298477986,0.6222197597323332,16.863649707108653,18.286963038046427,-3.9580068151602528,0.28419329213410477,-0.21642507858313348,0.4191543095161692,36.154101640254154,158.3741800402592,16.493543762768564,-0.10717305880337842,-1.015119573400124,-0.1979535527457871,5.224012835344377,0.1698650346385326,-1.0932747013354567
2019-08-03 22:39:28.282890,-0.06896898746756046,-0.14059844004125957,0.2872059311939764,39.997230093272975,-194.97387418897702,70.26492013895079,0.04964932024576486,0.9540056917007701,-0.32504708311541874,2.818414795396959,3.093872718639647,-7.332615472614585,-1.094612813483583,-0.03075221956123118,0.4280831359039066,-13.532692272350907,50.08840951351587,3.169291640827815,-0.05434462621414545,-0.20789325018487476,0.4215265279295378,31.916276646439115,141.0986850478754,-18.674093830239567,-0.07395646555610169,-0.9755394635199318,-0.20479184798864186,5.419001163188709,1.8092069724437583,-0.09583322842805213
2019-08-03 22:39:28.292890,0.34656242422514766,-0.34884209572110475,0.6689495645879908,80.33140241244608,-149.52445975196852,61.151154759764516,0.06613674493464561,0.9619566959831016,-0.3343790129567764,2.780820489667081,2.6096749646891273,-6.862357495236021,-0.7988294005190726,0.16216137559905222,0.4299915550226261,43.59781567151238,-25.73461626111509,-14.942034706965567,-0.007489105157013183,0.5449965008468604,0.45429816514341886,3.540356046749231,70.52377584760676,-36.71732797855857,-0.082091717395499,-0.9774777499856324,-0.20234840942487406,4.761165718060904,1.832416671723266,0.023920099819279568
2019-08-03 22:39:28.302890,0.420328309919127,-0.6138189282112904,0.8797461877292277,82.04454507400492,-134.25866225598472,45.35745087364723,0.07088944910667816,0.9612252118193183,-0.33937846300772867,3.213563384564445,2.147012908295392,-6.581569512640691,-0.7866618188153556,0.17773337429634423,0.4173544369474233,60.92711418279493,-43.41711119442277,-21.148112479925125,0.0869745864934246,0.5846628611953596,0.49054654442889684,-11.970400745377137,2.360595227816091,-49.65530453433526,-0.0801610649628864,-0.9674950793019753,-0.19777903218284953,3.9683782262357914,2.5933248111293214,0.8578852917936871
2019-08-03 22:39:28.312890,0.40306185247161613,-0.4930374151202177,0.7836239963436898,79.32571542829854,-112.41517202948337,44.4897906079362,0.06452893545162887,0.9601969374222803,-0.3326628444632993,3.0673120972975387,2.4576355895087016,-6.5201544303186,-0.8422207115219676,0.1340798472504675,0.4064908485579053,50.50163023399253,-34.19604809043309,-18.414654078754523,-0.27604998500106165,0.37345842389201805,0.5572661185127052,-18.652352373925424,-22.855267810087526,-55.203796898452154,-0.08042135512158151,-0.9623573401847643,-0.19297751966368007,3.1682060649998203,3.1432611665082226,1.487542687427652
2019-08-03 22:39:28.322890,0.20628718208568547,-0.5523530881458504,0.6252076760375271,87.8025546221975,-109.42797293426985,48.26823004300484,0.052196131136727636,0.9620161680387377,-0.32079405712026865,2.5176413147407812,3.052608643229479,-6.604437117068557,-0.9196302364947642,0.017588459365653845,0.3973703658875686,10.498868111755637,-13.228261691228138,-6.053781490881363,0.05507796924458936,0.42743168653855396,0.7231919897748463,-40.155424167644114,-76.98266588004671,-62.293234809784465,-0.09705859433700574,-0.9582805134660427,-0.18585516976965902,2.457169598993633,4.265324211466348,1.9465583803798407
2019-08-03 22:39:28.332890,0.1383467158889446,-0.6398625664225491,0.5574974570440353,86.50648047047761,-128.9051061762392,47.56187574609211,0.04046386689457901,0.9618518233953275,-0.3142770556138273,2.19321802106923,3.493666822505728,-6.4565457907365715,-0.974789687686272,-0.14866005051928763,0.38284943573054275,-39.56385322171499,8.430291356306235,6.457412355972768,0.3991296879734784,0.4863588369818054,0.6846825236683687,-48.17376528825956,-151.98217154343547,-74.4718013059823,-0.11494955545043381,-0.9795274975452074,-0.16773445894948447,2.465985318863113,4.2552870488912005,1.8217767272041647
2019-08-03 22:39:28.342890,0.21071032764167436,-0.5668989697086152,0.49279255794087856,88.98182725749717,-151.6025266236356,53.04995839243162,0.042202418775637046,0.9606623146408483,-0.31379013238536685,2.300918956393319,2.9138272787554382,-6.04988572118889,-0.8550797893310033,-0.11367269399577,0.3884651111620547,-13.159803132119833,-7.502639059325156,-4.836707558825388,0.35241848184216884,0.41870776178755414,0.6057864759784689,-51.0496125119127,-184.8496215766781,-87.84667436489408,-0.13307049803304574,-1.0024913629547039,-0.1667691203202433,2.1785681133385784,3.7682481045452554,1.0204194854564435
2019-08-03 22:39:28.352890,0.21861934952711753,-0.5164458734981097,0.41121298401177625,101.47005378012511,-175.83932800952616,65.29673095101043,0.04546840651156221,0.9611317748983199,-0.3220893753469188,2.9395683154631103,1.5504325418310214,-5.904534637081724,-0.804975498342178,-0.05828163761163924,0.3850840263278901,14.38611051440937,-19.369540146204418,-12.857329077408071,0.18596934209676208,0.3553793477665798,0.6155567561358645,-57.76250182336116,-188.90386914915982,-97.26469080006486,-0.14135086918992207,-1.0065651323131095,-0.17661904138797296,1.6600823709122334,3.98542035354574,-0.38139496409122386
2019-08-03 22:39:28.362890,0.2364383573992631,-0.48226864970480965,0.43557489424176693,107.7117104110838,-175.17577102265602,67.74427211740701,0.03922333088498428,0.9638777772598479,-0.33029053616863424,3.349372225358149,-0.17553806148672668,-5.336378532161671,-0.8454605093571965,-0.029287097137909994,0.36964601141412234,25.9506064918513,-17.541249327120806,-14.25035746833305,0.26545828371576974,0.34141661752742974,0.6266397665988678,-63.94830650748755,-163.39572222240474,-99.35653906725699,-0.14022663909791397,-1.0010523259904027,-0.1852478650303418,1.4128466879460184,4.957267614190665,-1.5685708276498591
2019-08-03 22:39:28.372890,0.2554555943238162,-0.4731990326484302,0.4610831122986435,112.76469413074598,-171.39240600487827,63.77028646454841,0.039835664901444835,0.9644494609163279,-0.3287330707130795,3.168843586191936,-3.0372152283642664,-4.115721054892274,-0.9230929053467529,-0.05493562615171519,0.37090924288342275,12.521890433030482,-2.3354218796424817,-5.961585462226053,0.2749606658409746,0.3277751588909367,0.5943223387051356,-64.219224426148,-142.8203263202223,-94.45440033086568,-0.13358790549297211,-0.9985833309034208,-0.18395849976915604,1.1452390762439741,5.624790415921312,-2.5159243760821712
2019-08-03 22:39:28.382890,0.2559967551723482,-0.3951728177899294,0.49380334231458695,119.2201295646007,-160.79369571855528,57.88260982977515,0.04089232762745226,0.9660339908653691,-0.32997476617135757,2.629530008393026,-2.6855570978122447,-3.5085836772522048,-0.96540211791833,-0.08788756497689987,0.37090884127175133,-1.4841810367825137,6.723708726368046,0.14199107985811485,0.24069769607273067,0.32085769833437155,0.5574029556222035,-63.62567563532239,-127.80534215948755,-90.15343979546701,-0.13075506982027357,-1.0006452849680527,-0.18831837147360803,0.7887054628858249,5.922466385483424,-3.8218243840141732
2019-08-03 22:39:28.392890,0.20629040827691192,-0.34717321232729403,0.5121525007123713,122.8944717014963,-150.3833515983306,54.7564026917361,0.04500929782742082,0.9690846924961188,-0.33407693342560385,2.4604491813000164,-2.55669645735785,-3.2309143361403576,-0.975216855596406,-0.08542627347409772,0.381518019786853,-2.6136388877656005,6.952773910741351,1.6546918104053674,0.2295459594434507,0.30020048409141675,0.5576707735062287,-64.41627375914499,-100.48380910420906,-86.21171813412667,-0.1299079575614563,-0.9947433736099526,-0.1825932229029847,0.6599209277500526,6.20887122243815,-4.306365526022926
2019-08-03 22:39:28.402890,0.16164053483254254,-0.2678641775628647,0.5518020946193413,126.23812707103066,-135.57267063209915,51.73052680640104,0.0472708695859393,0.9628680403985519,-0.3386448112582498,2.4147088218959434,-2.557161415709899,-3.1049674623369383,-0.9892034143062726,-0.05536300141013605,0.4344746324489497,1.192216734052646,7.727943369439169,5.523052306068618,0.14655500753528872,0.25203312219512625,0.602830632700462,-65.08790345279544,-58.60403644654677,-78.21428851443791,-0.12233902219776127,-0.9828553946905064,-0.18006199462119105,0.23048762471068934,6.519195042009911,-5.669177359640389
2019-08-03 22:39:28.412890,0.1653905221112971,-0.21196947129154545,0.5731743234529901,127.76508300428577,-132.69016739210656,52.38232303374821,0.035002406089507804,0.9551406626476785,-0.33659298494541384,2.1293287230450444,-1.2541424890434119,-2.1882326386509465,-0.982320218369679,-0.03198460017235838,0.4700268214398045,14.151035539218816,3.996969118000165,3.6562254414950432,0.11074692056541743,0.23257498891052597,0.6471093154578239,-65.91696039352462,-41.73016489524477,-75.08201026286866,-0.1325949359684372,-0.9935487341713096,-0.18151370197618738,-0.1588019794185094,6.160466269936198,-7.103820341902521
2019-08-03 22:39:28.422890,0.14830001333243187,-0.20898229247973565,0.5777015409700063,126.14865950350017,-131.34066234976146,51.67013594289831,0.02441323598779377,0.9592306538910017,-0.3309208993364927,2.5726284821264107,-1.3470696245801987,-1.7745372601781635,-0.9574198138140722,-0.028186323318221188,0.45920497644094116,14.739633692233854,1.5033353340159277,2.0936501366085367,0.07403493984257682,0.20881280292716295,0.6847543163471373,-65.45377844266991,-36.3388886010132,-74.41374618136236,-0.13210794740415963,-1.0030181567479477,-0.17979028272075184,0.10823510280566485,6.598635757769087,-6.897205833959816
2019-08-03 22:39:28.432890,0.1061409666373474,-0.19354647781879103,0.5978210589980896,122.39641093911385,-124.74942673882158,47.794808718571986,0.03322964151785518,0.9541504255312321,-0.3294344063500216,2.568815331720495,-1.811745344397209,-1.1065269064202325,-0.9316454072273733,-0.051787673452376774,0.41935512553475096,10.384403167029886,0.4187015434511427,2.270785442733919,0.06337483850434374,0.2144625350521593,0.7327062538191699,-64.8694979648724,-41.36417718029377,-75.82643459769687,-0.12031223661444689,-1.0066732332087467,-0.16057788975315745,1.6780521337107526,7.370786285460851,-4.289749735803963
2019-08-03 22:39:28.442890,-0.022508191837531843,-0.11910513614948028,0.6016483153970505,127.57621673679053,-113.58003669031702,50.22974443576055,0.04684542820110646,0.9566263552657764,-0.3247695170862265,2.442831062578785,-3.576502710476229,-0.08443559189567605,-0.9295619438248237,-0.07352148868291554,0.4076038146507013,9.915462449772317,0.1794201611282903,1.7400412591076273,0.05541155989284366,0.2591845073478142,0.7299001026677274,-64.08043467093881,-62.70146686974036,-78.06435395909934,-0.12039113608688941,-1.0063365745241133,-0.16146711095938682,1.6483777668498616,7.291087303390334,-4.412698207661772
2019-08-03 22:39:28.452890,0.01748252062442815,-0.12461859491644127,0.6030148309415598,127.25464732186353,-115.57431276919974,50.37829626124605,0.0507231843273295,0.960585848368463,-0.3255433460175034,2.5455604944541017,-4.8873703317643855,0.23705238020595454,-0.9374445253071364,-0.08991096832221637,0.4122472610989954,9.952245378906778,0.7615863529294936,1.6834425208562362,0.05506608605041122,0.2824549827136497,0.6918418926733428,-64.08283199796443,-81.2360888710331,-78.61145272290906,-0.1486031277988999,-1.0041864587121854,-0.20973383939503695,-2.0068018039478113,5.963784178047883,-10.563088566887831
2019-08-03 22:39:28.462890,0.33104862616207154,-0.2759848608730249,0.6104579580171654,111.7643342733269,-137.50729165517123,41.90258093784549,0.056104659681578024,0.9603563129848245,-0.32965825349524425,2.2248823304448972,-5.955497122421275,0.5365873370756683,-0.9414133411447201,-0.10726880785383483,0.4138009186867861,8.954776196248885,1.8438911918112275,2.224614028706132,0.08083950047697874,0.27142103346738605,0.6679969152327933,-64.7423563802765,-96.30558094574958,-78.87005381354399,-0.14514440686968766,-1.0087515510470382,-0.19634813080126445,-3.949180738217911,8.142706568723131,-10.184876272369621
2019-08-03 22:39:28.472890,0.2825398286922648,-0.23099649763296687,0.5404517169115265,105.97483381094308,-133.37916814371167,41.23917410463076,0.05244407969971331,0.9690954507451545,-0.33245290331100513,2.267292353767528,-6.997056646942342,0.48201642414982543,-0.9431406923278911,-0.10514461833000785,0.4268654578079784,6.492812632660223,3.8959473436058896,3.258466438459436,0.10797338103261718,0.22668190777983763,0.589746428254278,-64.06648865072572,-120.98552809963397,-77.46183136317633,-0.1613493737644049,-1.0191965403729564,-0.20832730346456835,-5.999898811844083,8.579801256026482,-11.536278421553158
2019-08-03 22:39:28.482890,0.2954279608569623,-0.21794949359821533,0.5062761096031501,99.72605005075974,-131.85185245105163,38.89386245911867,0.051494394578949505,0.9674826907755565,-0.33767703649219205,2.3055273091604787,-7.514399469362127,0.4949840777465328,-0.9266539337967397,-0.045266482682440275,0.4489408773396136,11.35766192552694,3.176507955555043,1.9923149481712974,0.09964665660911742,0.18625090940591674,0.5221257286564165,-62.804368776545665,-133.94315654745242,-75.2832782990687,-0.16746117829195187,-1.033888688658894,-0.2132826728137349,-7.1078849083343645,7.011561874380166,-12.787215930905262
2019-08-03 22:39:28.492890,0.28912686465005066,-0.19040693185605387,0.5010009364825105,97.54374474671738,-129.63401043664265,38.30351596398273,0.06075320380282893,0.9605973662734892,-0.341929368184467,1.7567370642489477,-6.792294501655363,0.39241271048451926,-0.8979248519698448,0.026285339270711788,0.46794163995690335,28.247111890804344,-2.883934164369012,-3.238148523206444,0.09540814964873652,0.17296341604997104,0.5083464398147174,-62.843585328862474,-134.07849336238976,-74.58582387460744,-0.1394681990844489,-1.0491754506101034,-0.18038020563014556,-10.890363720648804,3.0991048957330003,-14.463140515552356
2019-08-03 22:39:28.502890,0.3004593227043828,-0.1436095499528683,0.4537396601997645,89.98727518173521,-123.0734113790653,36.99465271325248,0.055240763047790145,0.9619050089237899,-0.33841120319717954,3.575886394560976,-10.789297383463076,0.1781299974669599,-0.8996333657579931,0.03457616602490699,0.49643994617790144,26.892654704442933,-1.3331429844506602,-4.19175150193239,0.13347285982410856,0.12730186349077427,0.46268528677399423,-63.06593198588001,-137.69933177122726,-71.73566153526663,-0.11567362334916602,-1.057212229386473,-0.1963650329704488,-13.695006951805619,2.3174517166254347,-16.893975963354272
2019-08-03 22:39:28.512890,0.3142362651014884,-0.11767502653329155,0.4288229831455022,84.32602692648312,-113.72072179027883,36.00756017466557,0.047572323436278166,0.9659604221364089,-0.3398678100197374,5.159414799150431,-13.823029519716309,0.24086728370641874,-0.921409450941667,0.005473556043118019,0.46994797763431234,15.799409135316349,4.238415047815962,-2.0298281439207346,0.18210488357294055,0.08974630777607029,0.42108678832303126,-63.195794767361136,-140.06077875995817,-67.83599820166846,-0.15099999021941757,-1.0524972276697917,-0.23547097712335605,-10.684172169531136,3.2999451895306144,-19.357229063890788
2019-08-03 22:39:28.522890,0.32653008956760377,-0.09558241063465558,0.4220293019281436,81.71218021093657,-109.7091539968433,34.862882569030994,0.05042541422636496,0.9675925339054207,-0.3464142073776456,4.868527239720652,-13.027799065154184,0.44344040449271077,-0.9631768751731627,-0.06469677666541368,0.3600759780358213,-0.7948179481289916,10.904369823812734,0.5597156040975276,0.20642015149790732,0.08786389683870174,0.41575331788523634,-63.020305381949626,-138.1539885317212,-65.20428148517594,-0.15284752516707797,-1.0487768681982312,-0.24472576469794477,-10.040527420652163,4.056552927304185,-19.387728585563185
2019-08-03 22:39:28.532890,0.33433243374394517,-0.08188974222486227,0.40787514902910027,77.81087883894,-101.4329928965335,34.03303009570581,0.06259344859967989,0.9674108545186688,-0.34467188688835504,4.2370267931935235,-12.134759093960543,0.5205197037585523,-0.9602481512439426,-0.0708736514786638,0.36629187471398017,2.0045281091083376,8.541649472949752,-0.19460810872519324,0.19652050974697718,0.08780119492038425,0.4153236089647336,-62.49341671995596,-134.99809757056713,-62.985734939988056,-0.14906323150653594,-1.0431435565842777,-0.24254882139890116,-9.908687445049663,4.9376371944183655,-19.102974721201644
2019-08-03 22:39:28.542890,0.33547834012112693,-0.09105109144531541,0.36221199971116275,67.22243330007969,-74.19846013714357,34.36808967566162,0.09226344249105473,0.9649430480617558,-0.32218203313638105,4.602384227210517,-13.74013100110062,0.4113678448226671,-0.9463877699950741,-0.08721824312518321,0.37864635664305607,13.647599081559482,2.2940400705962887,-2.2502376913653572,0.09612846736197786,0.0902656536074003,0.431439290708665,-62.74457987827027,-112.66788160166794,-58.12159513457206,-0.14770519616695804,-1.0394091771855105,-0.24226865507741524,-9.446680097470315,4.096641993643127,-20.112798168013317
2019-08-03 22:39:28.552890,0.25476979849106546,-0.12582237655104317,0.30126915057402487,55.56063769655248,-41.37271994973285,40.08210167389924,-0.005787014945793786,0.9557735653307475,-0.3766631178653295,1.464227420460897,-11.971348829612964,0.3940994034149385,-0.9434787572884353,-0.0643358013608092,0.42882146402092325,17.384924852682644,-0.030586288394597316,-2.294039812202962,0.053489523474385244,0.09627904666342108,0.4834110810683438,-64.98321402018523,-90.60177913572552,-52.666971599674994,-0.11519499646138703,-1.052014987611105,-0.24170278152689004,-10.36539146481232,-3.3926092837061086,-22.387452730365325
2019-08-03 22:39:28.562890,0.17391912130457154,-0.1782253912347487,0.3371666460762593,49.69910769723208,-18.72817596167628,47.319995789599034,0.0339530343202488,0.9709406772616187,-0.35288748814392235,1.415580189420833,-12.617713554750518,0.2410480064032631,-0.9715951797392506,-0.003996504691959508,0.4392870939605596,19.78673942271077,4.932743193688832,-6.764132405330154,0.02164994221973461,0.12918892724236478,0.5099817644172857,-60.863495134912846,-73.46603083829821,-48.16566487026453,-0.09746943841285066,-1.0523871341057878,-0.24350817743168526,-11.553518988512561,-6.562644301261495,-22.912017764543126
2019-08-03 22:39:28.572890,0.16289462504550664,-0.18702328264709994,0.4088443071146725,50.01358587406364,-13.182831766423947,52.35723086277588,0.03167592252235641,0.977204694860555,-0.3447412083525963,0.9276480862155694,-13.227619516150895,0.25080761623105385,-0.9358551056902171,0.09401173774671082,0.4891846901676683,26.797386649079414,2.404816218799933,-12.384585635148465,-0.002213707845127852,0.1563437215177835,0.49744260724724015,-55.10869712622283,-62.1558906972666,-45.22931161664668,-0.10276915514625709,-1.0370642551860765,-0.24749078367990424,-12.284497405029235,-5.37303406683179,-22.205953278964014
2019-08-03 22:39:28.582890,0.14930137095770357,-0.17772719176641807,0.3780446631847949,50.55197487144052,-4.629127050899254,63.33177840735184,0.05350234955466574,0.9688491805931613,-0.33847700138723985,0.2044807120089512,-13.272908016161937,0.7174406296510709,-0.9143842350461671,0.12969384089218666,0.5301031007165897,27.79660559642435,-1.0937019014406626,-11.800557719351124,0.0027323355005404457,0.16032506753754838,0.4811050643463141,-53.31669525206657,-60.572383482158315,-44.59809667998805,-0.12866720211232263,-1.0158673880794853,-0.2480456693569756,-12.469555267468966,-3.5972919266099956,-21.920735955126155
2019-08-03 22:39:28.592890,0.18985196625394232,-0.2782757003081429,0.4263868969937547,43.08617366240465,3.8105974956671664,74.58439064493622,0.06576333819964299,0.9693615903485121,-0.3368481285339351,-0.69049400105282,-11.638580372363958,0.5589976739683111,-0.9335644827023148,0.10456714863308982,0.5199635827803474,23.650540818770356,0.11004908246404096,-10.529157758245894,0.005521772282499973,0.17218199330275338,0.48226918075295266,-52.51519925986922,-61.55446046050058,-44.53563849454622,-0.19904730780380234,-1.0042933429321301,-0.21565346144703834,-13.111330402682936,-0.026821070090517114,-21.42933800645082
2019-08-03 22:39:28.602890,0.1818898334810742,-0.3547207396314319,0.386853668438921,37.624793691706735,11.299182979790421,87.0296863309217,0.09696619118036066,0.9819324926019639,-0.32967820906195855,1.2569849152163077,-17.00543115536247,2.2136987571610818,-0.9372800038756606,0.022106172973943995,0.5619301119386453,8.260738651997839,2.8939127311358455,-6.754767915050455,0.0030075705102754974,0.1816057265427102,0.47382966213835637,-50.30124002783117,-60.29963232185092,-44.30277191308346,-0.19401562738888756,-0.9826503562614611,-0.19105164517938975,-13.16009024622363,1.6485998595722249,-18.780426911679687
2019-08-03 22:39:28.612890,0.15003080262484716,-0.3967290545706383,0.308370307148275,31.050229880198113,23.053967884477977,97.79607587282237,0.07253392018782932,0.9791576864692079,-0.33614669359812277,-0.4512428920582081,-11.679378664496216,0.9431841174943785,-0.8880004792120079,-0.06950632852579655,0.5763431999373183,-8.410757700700282,6.067828734964419,-4.489194309386458,0.03788178091836674,0.11999095944014429,0.3603531680854681,-45.1494551906046,-55.87817317985864,-44.64534771466992,-0.22850456402283906,-0.9709202760040763,-0.18884173915985222,-12.00606102592827,0.9814317006402371,-14.870022672630846
2019-08-03 22:39:28.622890,0.05573900672355318,-0.4955418252970961,0.22274207540565183,23.637923751028012,38.32580298111844,116.60562445745704,0.05000242438599802,0.956265913588266,-0.35269993735750915,-2.7512631052909664,-5.01802737479826,-1.0044605687073944,-0.8823101253739478,-0.14420963812832543,0.5734109874459202,-23.83822394663178,10.739571277920138,-1.9767683076440135,0.05294718627221478,0.03979961607686944,0.17173734305029872,-36.43925909593983,-38.188931449888095,-45.28639353189996,-0.27908671946651015,-0.9683914630347252,-0.16687801740897099,-11.416095277181588,0.18010789462706014,-12.937257553431627
2019-08-03 22:39:28.632890,0.02078581924127341,-0.502895937535562,0.22943382709461757,23.339184032017666,44.44848168001437,127.30826871429676,0.05861179527169341,0.9532274351891488,-0.35355494611819815,-2.820084555646452,-5.163888367007655,-1.2830063519219594,-0.8525443778070813,-0.09113334795363379,0.5144481848152411,-6.881137808646546,2.833042096509865,-7.087692724843256,0.10812916167395405,0.16260054232865706,0.13199156344509708,-27.383653529247205,-9.483520948519004,-47.01841239814036,-0.29354822042551565,-0.961764480913396,-0.13253897867507858,-10.708722255831457,-1.7234636099389955,-9.814146973485242
2019-08-03 22:39:28.642890,-0.018502268664874005,-0.5096142550169851,0.21944938526962676,26.004731371570394,51.52843049965593,136.54652657090838,0.05009217288606509,0.9654669237581084,-0.3311471338993746,-3.2861088411609063,-3.4285502578862674,-2.3919811934388315,-0.7720494496483231,0.043345137953687975,0.44042738092840056,29.69498322607686,-13.147225580937397,-17.27015783021717,0.09629400041257309,0.4011570804774554,0.1825647431655145,-21.24737105346185,22.27736015788157,-49.08066590157164,-0.2792257773798341,-0.9373978990568959,-0.08666898854554539,-8.928572145356757,-6.739450716381258,-3.2086255217093727
2019-08-03 22:39:28.652890,-0.1560751576878004,-0.5126894709546695,0.22573516854681985,25.213968448273324,64.86244090150619,158.0541823697028,0.07221220736300783,0.9585227711695541,-0.3356876547249675,-3.695982208401491,-0.8777521251845485,-3.4558445480890017,-0.8050050323310555,0.056014689572442836,0.4742158523976532,23.067722826418358,-6.451840703991398,-15.471793623267143,0.0013318379247103922,0.4614473436355221,0.23999317689486777,-20.539444207737095,51.006611096797066,-52.90557553845383,-0.2767570858243502,-0.918568538960871,-0.05795921499740677,-7.050025422029241,-10.58948644746765,2.6144056627454915
2019-08-03 22:39:28.662890,-0.31091649199013827,-0.5663853425543771,0.19691590293277997,24.446015789626628,78.24795903037106,181.4117813254736,0.0785072245805153,0.9601075264861392,-0.3410653327957292,-3.468376541734109,-0.4648970450791289,-3.8499115383130302,-0.8619902128625924,0.1341321820566078,0.488732298961371,25.23203175045999,5.168109463397341,-16.776947290389966,-0.13205728946451525,0.4066340794433875,0.5130029547718743,-27.092685317842054,81.56176305479228,-70.920021981848,-0.26210186876565167,-0.9198870777970094,-0.047354863711310854,-4.952981938885984,-12.757622386067343,7.3045990876122575
2019-08-03 22:39:28.672890,-0.4636222948398817,-0.6450094602273451,0.2864321497857225,17.63395873621367,95.89368376217347,209.51958183061043,0.050524297296524016,0.9636367723570658,-0.34021037901006196,-3.8634697264771627,1.3411683982031408,-4.526364146341014,-0.8562478643855733,0.09055482307024758,0.5513536566246635,16.02562812669424,12.442968424932896,-14.52731648318663,-0.2231227038337958,0.44116908271724986,0.6581984025286288,-28.56493971935134,92.95648117610203,-86.90878327832023,-0.25530152909644654,-0.9204847467662394,-0.0564640436159711,-3.292530844265497,-13.32367255558361,10.384869052389064
2019-08-03 22:39:28.682890,-0.5782760448906114,-0.6576640753403681,0.42532786484469076,25.57937264906862,114.82757829251342,226.96128916671805,0.02894008882693463,0.9515111548881631,-0.34068862541448236,-5.084092609076797,3.139188870815555,-5.426960632350793,-0.8539948761580545,0.025147712128073083,0.5534760117145657,7.225586578655095,18.268101794263334,-13.522569678430086,-0.2520017311028782,0.4790081310893429,0.7024967458259362,-25.742650693763387,101.6988289228449,-99.26671162393167,-0.24928275124778582,-0.9301923830491302,-0.06946322102942462,-1.0517025444358155,-13.011729551400883,14.0570926108917
2019-08-03 22:39:28.692890,-0.6516546157024455,-0.6569682896183155,0.48044593365687394,27.86417343312204,126.32945560374884,236.59186290587772,0.03477709105135482,0.9499397228758695,-0.33944409099348727,-5.437155217940992,3.488940474354242,-5.491498326711692,-0.8352599014500525,-0.07267291087082889,0.48988620114235326,-10.586479920917105,17.649187203702088,-5.809752186386129,-0.24740241785395684,0.49373001332674277,0.697708995209429,-24.761266064903168,104.29647489435857,-102.6717499499212,-0.2434855563478257,-0.9344877996163117,-0.07854130887695245,0.8669700669460697,-12.654050919433006,17.12219056696315
2019-08-03 22:39:28.702890,-0.7998897813670512,-0.6758423092472094,0.5625139243769621,30.226242080243914,146.84816952277083,254.77743988382326,0.04168041484333922,0.9631398601672053,-0.3169227118262985,-5.269175029071713,2.3244214478457836,-5.338603612480747,-0.8231551916020887,-0.05181507824579543,0.4210630097480313,-14.780598510687836,13.413445146887463,-1.4702335052391604,-0.2297084640883357,0.5084048851208989,0.6728718356650404,-24.365451714107465,106.30062123441876,-104.24130916219336,-0.23496164651694637,-0.9342166831253496,-0.08181954122744789,3.027242955969414,-12.62546180180957,20.78531597864524
2019-08-03 22:39:28.712890,-0.8641872723986047,-0.6462955941507049,0.5734740975438664,28.251061879600275,170.01404990969397,270.6391913015372,0.044204779016549844,0.9719903649428379,-0.3001700008313743,-5.535797375132196,3.824927155593071,-5.368450505391645,-0.8283941058063987,-0.00038426585904175934,0.40079503742994327,-5.947253996291432,12.641264265275076,-2.2183265752583017,-0.2148770960362043,0.5386577125880817,0.6388142387318734,-23.09571816248608,112.56234029296891,-110.26568255146321,-0.21745579865830564,-0.9445322111320519,-0.07858647793488242,6.282286334173304,-13.317895609650462,26.579258322730446
2019-08-03 22:39:28.722890,-0.8432899430191654,-0.6385256303153557,0.5728444781299671,29.046524965164114,172.23079855398555,272.13193277261246,0.052438457875199906,0.9674667345683634,-0.30054949427961974,-5.66814937722921,5.400764750990157,-5.351694465811306,-0.8387864847783288,0.0008789814220965808,0.4088947521558448,-2.2676592604277945,14.793342862571297,-3.446066359395239,-0.19660991390458948,0.5467619592084784,0.5554798092245645,-20.527264437833626,119.54033818543775,-116.41880015720731,-0.20244195039010446,-0.9526638779863505,-0.07799373007655297,8.535601711897494,-14.708551971332993,30.335847244726466
2019-08-03 22:39:28.732890,-0.8413118365541199,-0.6558534242966125,0.5115928807576178,23.873839524007245,183.47933979937926,274.3446378693984,0.054959677760622425,0.9644058768877264,-0.3148937847610259,-5.296262685058853,7.603903309958009,-5.118184568011355,-0.8740881290829059,0.03016617140009227,0.43083294267066513,-4.530748202360673,21.749516748703986,-8.12525090461909,-0.16692302996686148,0.5507828878668061,0.3163056448773369,-18.50479755399061,134.41364733871967,-139.81459601022377,-0.20816485400955503,-0.948049051681555,-0.09176355874721615,10.229011801722793,-14.758023365640906,32.49025197631123
2019-08-03 22:39:28.742890,-0.9689937391007396,-0.6952078344366077,0.45052777403640637,10.573331929008297,214.16120387424363,286.42332564641026,0.03618871235496011,0.971126148503172,-0.32732214108396124,-5.499352486979711,11.149624668055996,-4.8978629093226385,-0.9353071147201037,-0.029396741032952835,0.45209058125041135,-3.9659038458021154,29.941796129231356,-5.838502474066475,-0.2900911748549033,0.6992876991283051,0.4209155806689788,-20.92944286081192,149.3836061489375,-154.661479044003,-0.21877390769842223,-0.9456841965250761,-0.1016090091295326,11.43807848135246,-13.768623468071587,33.67462442737659
2019-08-03 22:39:28.752890,-1.283501965178686,-0.7243110590444426,0.5874305993704856,7.296461096062,235.10195601142394,303.7254790727946,0.028234099982902133,0.9669815771538771,-0.33762036345606045,-6.17138599690197,13.040559131403436,-4.806192207954284,-0.9554608499484224,-0.22780238335610586,0.4451069744079826,-12.129067131898827,31.216162628292107,6.160332051819237,-0.49045639913682487,0.84891842584614,0.5521750321835834,-23.766403095266188,170.3066573627479,-170.06226019541035,-0.20812793711344837,-0.9536528142690555,-0.10933721973407776,13.784818459234286,-15.140940699790562,35.805563185510714
2019-08-03 22:39:28.762890,-1.6654129798126112,-0.828987852962785,0.7710736246013363,17.836144552074202,249.27983967605223,314.2313423099117,0.028312136898207184,0.962120364689835,-0.34094492330355514,-6.513868029289844,13.134544294090963,-4.739360705581971,-0.9883312600259583,-0.32040080978559893,0.3673804974489525,-24.09929134007973,31.390980796107986,17.58321098036848,-0.6414934569223653,0.8943306956368621,0.7135562512824869,-34.88441941810695,203.19460138233308,-187.8681997552206,-0.1846261425411121,-0.9717016902120026,-0.1278327525634019,16.26354677290072,-21.358001197996387,38.33865265011675
2019-08-03 22:39:28.772890,-1.8475366223592082,-1.0010551029815693,0.8669562166381358,22.679745215417075,248.41285214550172,310.6424979773957,0.03085267416839934,0.9635770540719989,-0.320050843921083,-6.601702151300818,11.585197439427924,-4.28990235692658,-0.9414096402773678,-0.23153641523354906,0.3552821862366501,-17.453040472440307,22.412029691604882,15.402396418730387,-0.7945753201599642,0.7895592710806862,0.7611437238206009,-36.66432875065711,239.69120986732486,-196.08295499827793,-0.1772138612133123,-0.9841234309005037,-0.14441188184658255,17.332071698603414,-23.979028748802808,39.14261734769323
2019-08-03 22:39:28.782890,-1.8450883732706924,-1.0841819369831274,0.8648755279072209,22.046397245870097,245.48863278736974,302.6211841535127,0.04153346179138846,0.9785816902501671,-0.29402651724101525,-5.363257954969997,8.92679711816549,-3.5266939539766247,-0.8863607864445199,-0.048323346817639556,0.367444121557774,0.9299517172545366,14.31869500635767,0.8410489618711456,-1.0359828154150676,0.7186773461949818,0.8906603316292732,-33.26065755023304,260.76010423428306,-207.4083882796118,-0.18088897252414948,-0.9860513109768754,-0.15583039291283968,18.10948497112441,-24.196953963702384,39.508108779495345
2019-08-03 22:39:28.792890,-1.8091352363641096,-1.1850900948316865,0.8420921549896491,21.012328978803513,243.0326368396036,279.73442207197115,0.05521044481711071,0.9753703714981512,-0.30167068076296305,-5.070466495653853,8.818370322970505,-3.173754514561862,-0.8938439462104603,0.06464418354039522,0.37213469790413045,7.066446689310048,20.860330860304202,-10.547020272837962,-1.3155517298295252,0.7437663583263805,0.9601617055027813,-26.886814686071286,240.69340011642234,-220.3758961412152,-0.1734174310731893,-0.9805569789636616,-0.157891078428517,20.571336037581524,-27.72290136449047,40.64605195848444
2019-08-03 22:39:28.802890,-1.8007774891227304,-1.2058895452669718,0.8627114000253698,22.579504489308043,243.1389837936073,268.0786437825614,0.05944555787633303,0.969521168890243,-0.3271784380526553,-4.5927624210059035,8.987673612961244,-3.005548290329587,-0.891268005481217,0.09091256452191483,0.37977478217152233,7.3338970129566485,22.60539885134055,-12.31093650100767,-1.447645378128625,0.7397360756830258,1.0341146375208297,-24.656275163837734,209.23940091473446,-219.14382764960277,-0.1653053473993034,-0.9788032071123691,-0.15753606353976699,22.061376207123374,-29.975280045096856,41.294950563521276
2019-08-03 22:39:28.812890,-1.8215494184094219,-1.2361998393091949,1.029328584355651,31.39411512790841,236.3896661478904,246.8409596982854,0.025471677021632808,0.968744570719787,-0.3395972875180204,-4.963227042662651,11.808790197653076,-2.7663178175111938,-0.8983447018116391,0.0768246839484355,0.37997221017301896,2.2697025369872823,24.346695186408162,-10.828543067688996,-1.528155307474412,0.7132586903538645,1.0388501822761143,-24.164771716024337,198.6072159202842,-219.98083771966944,-0.16430135676432134,-0.9823409896779273,-0.15786790699399708,21.75708408230196,-29.561519998216514,41.13707669686745
2019-08-03 22:39:28.822890,-1.8321065933664564,-1.256349760978336,1.1293147774209904,37.70445128043408,231.32097675841084,236.07447137375914,0.022412002318887937,0.9679022744977559,-0.34718700373049627,-5.569043036603806,12.544049235280418,-2.8821736231844595,-0.926285772752423,0.06159073538556873,0.3697430270739449,-6.8348868092103015,29.281176574835264,-11.701790420784915,-2.0600416330625175,0.6820198756048709,0.8382430216097494,-17.409967512859172,228.37734839590485,-249.48828535901964,-0.16373536426267252,-0.9882017945326108,-0.1548168246554048,21.029244773242798,-29.155858656953008,40.764564782058756
2019-08-03 22:39:28.832890,-1.9013908469442362,-1.35834051867987,1.1894666403818397,45.791050777270435,215.19373280839142,221.67011858754094,0.0334467176535808,0.9569314346403374,-0.33612129196696655,-5.215742781334073,10.546842981469768,-2.93371562222457,-0.9487399236068731,0.011448085467891873,0.37981201554936933,-17.118473724723845,33.31997835001734,-10.646200916558662,-2.096345296003643,0.6863808680881232,0.8385402920137912,-17.648154420244204,226.2563216272417,-252.08003013342457,-0.16093449350878986,-0.9940240100256713,-0.14927820126305164,20.816822300346562,-29.686649270631985,40.57551429214649
2019-08-03 22:39:28.842890,-2.023731001767152,-1.4917148550152866,1.2488065458055435,58.04832001881309,187.4430615349256,192.31535160045613,0.042054669678531414,0.9688973862813378,-0.3119129682219994,-4.9970202872743,9.240235214858005,-2.2567961100442697,-0.9711622814172296,-0.032641983403049545,0.36823431154605535,-21.012897283688798,33.958010691778014,-6.452716862753727,-1.1417943979494842,0.7616043316406331,1.2968060039617522,-33.59690574779286,161.40438703321377,-189.39516388757937,-0.15785762885058097,-0.9968080756667628,-0.1490304560464174,21.098236712397743,-30.098170674446088,40.71345081473568
2019-08-03 22:39:28.852890,-2.0110111457508317,-1.5294170564250873,1.2899379918432734,73.04779976147304,162.01952755168145,153.19487990411452,0.044984909702912676,0.9806058828347924,-0.30572458802724417,-5.087500012254281,9.530015103569731,-2.1005471614491915,-0.9847430689515971,-0.07716205111614527,0.320743867199937,-28.34939472595033,31.798887740055488,3.550300626316992,-1.0985661834624258,0.9184937342998845,1.4039493996895933,-37.74316680279355,161.25381991491523,-171.03037869663896,-0.15624875999055787,-0.9938669787159343,-0.16171650611236618,22.01779413056344,-29.321678633495903,41.34556450854074
2019-08-03 22:39:28.862890,-1.8755605635155579,-1.4770331721507879,1.3895668514496853,89.44991515917538,144.61823182543245,116.16435386702791,0.06217969819728887,0.9811285297108226,-0.31145070444502304,-5.104972673589243,11.71427620246279,-1.8456246356712485,-0.960922842938358,-0.06695536763726209,0.27812321206628526,-28.80542169229988,27.589757085136462,7.1603646927021485,-1.151998285531297,0.9960026128394994,1.4033025891039959,-38.10602707131693,170.71694072754977,-161.40679705576397,-0.16157624344761456,-0.989707955665096,-0.18796337729799567,24.24289380154714,-25.951463429059974,42.2391116803902
2019-08-03 22:39:28.872890,-1.8194179201914786,-1.4323676774633163,1.4329996258943578,100.5759498596771,136.49861491389504,98.30172893215436,0.04981369161858654,0.9775976570309775,-0.32652934808001294,-5.422435621723626,14.721010199009973,-1.717424789264089,-0.9903983665992886,-0.09288554775371727,0.25592838088042213,-19.938002937733838,27.231633722841153,10.401878055080491,-1.262378038758926,1.0724334157729833,1.3442315397944067,-38.157374795462,194.3862487859393,-138.1772675676497,-0.1768226498576695,-0.9953432114906261,-0.20756961915895003,26.474484438322786,-22.459654099534276,42.14425524115976
2019-08-03 22:39:28.882890,-1.7200389447632227,-1.3528990196193915,1.5439907108725341,121.18660350093158,118.45499995111335,69.40326766906009,0.031478735904892974,0.9825953868820291,-0.32297483878498084,-5.770980148561918,15.828782303869719,-1.7804992211695985,-1.0092856461260764,-0.12070444229101102,0.2458613161302675,-19.58491732846909,27.829656820119194,16.339295879829415,-1.3570587081176142,1.0360920903210384,1.2371862965808587,-39.27608444154241,211.81360280200636,-117.91963597321894,-0.1810297711625167,-0.9929945516013393,-0.21727759812847425,26.793757080496157,-21.91290833511767,41.71606925960414
2019-08-03 22:39:28.892890,-1.6259699181181095,-1.2326464772326104,1.621667801478425,140.53423910234238,90.8154080515073,39.733994745378695,0.03949618706708101,0.9797349999588778,-0.32355906625666353,-7.298147477989871,17.452621263629105,-2.0897161390870016,-1.072769396475977,-0.09630283194720343,0.2542283073850505,-16.74008441302236,37.83564547461697,25.678061513228876,-1.3924668198145123,0.9975999826191323,1.2208652528983817,-40.510139391723776,213.64576019127142,-109.52400174811488,-0.17518614494809376,-0.9912415878314833,-0.2216385555244595,26.44188011737532,-21.873744307265056,40.85998044908311
2019-08-03 22:39:28.902890,-1.5760009886106572,-1.1443983418636003,1.6007248896185193,152.1651244661056,65.728285042113,15.695709617242496,0.06366825734419114,0.9828600962893655,-0.321938661340486,-8.064135632832665,16.407465794324235,-2.2676687697205087,-1.0920827351649007,-0.08688253864099178,0.27171488003840816,-17.085271692865792,40.231680914658575,25.791239415242885,-1.5349811472729287,0.882487386010577,1.2352147382092797,-43.67269411731144,199.8068736359664,-96.05797386693243,-0.1749465303606495,-0.9948655378630565,-0.22276830998594116,26.015735949744936,-22.51740521473863,40.179491305696075
2019-08-03 22:39:28.912890,-1.472492577767048,-1.0478622613852553,1.47781833990377,159.8697092377709,26.330348818960292,-22.8011371744495,0.07082807120903029,0.982934634114577,-0.31274009997189756,-8.572824835873588,16.506557540733613,-2.3519260808437847,-1.0972714676754096,-0.05070793708542918,0.2777522776986728,-19.526870567535727,42.37807516509081,26.380300062815888,-1.6322731020144714,0.8056087118744565,1.2704557916053145,-50.00438510393572,162.2735594558931,-84.89194367113885,-0.17614524555005706,-0.9895499107684724,-0.23545567740976275,24.65691760030331,-22.967683452643325,38.73477659298125
2019-08-03 22:39:28.922890,-1.387158472799054,-0.9819641220168691,1.3774241660906439,159.9972798121036,-4.843352671721894,-53.30920750275575,0.08089585384550975,0.9893049550369238,-0.29972307368208667,-10.397672433729147,18.43144318977829,-3.217287838343533,-1.0819855373821197,-0.02317177820122359,0.2734439052206874,-17.052205842514727,39.517020120603405,24.54466515993973,-1.5764574625683445,0.8006365049056541,1.2970364766133646,-53.40850065024588,139.18747811431345,-78.8460089798999,-0.16707657353127134,-0.9867067230972101,-0.2562479589806944,23.83923858116009,-23.38244384699304,37.3976683654907
2019-08-03 22:39:28.932890,-1.3295643464723579,-0.9231835015721591,1.3433174381309936,159.18681658147224,-22.240059584311375,-65.9175861009829,0.0955399432045879,0.9858392818938124,-0.3121970982500922,-11.151962798892708,21.82930805545982,-4.465785414991659,-1.0464914381863137,0.00344040285234404,0.27216869956023276,-12.868725826756078,32.90489998368033,24.622434185793537,-1.3906386294439634,0.7813962882530872,1.339278181674062,-62.447169080342235,84.84631358319695,-62.24896071873967,-0.15352242179312903,-0.9913261994797965,-0.2614903515691804,22.802693060385877,-25.09744864046946,36.372660104138184
2019-08-03 22:39:28.942890,-1.208553102768324,-0.7935579268261921,1.2813291096311763,155.6752352807686,-59.2336498887233,-86.71648070648438,0.07984961354199348,0.986154951974317,-0.3119924291060905,-11.8291995971404,23.445068599118123,-5.159801050010173,-1.03118208085916,0.00039383420461037207,0.2674987153709537,-12.80507797089729,29.928401388726815,27.35040052715839,-1.2672147774402263,0.7399813534159118,1.3560514855104275,-70.48539507001232,47.778145979072335,-49.89843356462029,-0.11785715112869781,-0.9958831704244014,-0.26568150764770454,18.702708569827593,-30.963889442300076,34.255465233592815
2019-08-03 22:39:28.952890,-1.1472222946376485,-0.7374751672635177,1.2693609188373964,152.47015924023393,-76.43092690183599,-94.19329563639496,0.05291492349404925,0.978654637316645,-0.31744389344627894,-14.0854756660275,27.279117243569754,-6.556576644763989,-1.0275616570677646,0.006878097919172427,0.2690494458895599,-13.710226642281468,29.497158598237938,29.735335369401007,-1.1423339696539414,0.6666779970691025,1.3539391070683755,-77.67084663302872,19.63175284709062,-39.34486467294635,-0.09931451455409791,-0.9990348419198886,-0.2769045205098196,15.688877818787162,-34.70794530584135,31.90002002318556
2019-08-03 22:39:28.962890,-0.9988817321639016,-0.6519602083512024,1.2858524086852983,143.4636461171897,-107.71828169901019,-104.69231030902182,0.0435422310383623,0.9841602902132333,-0.31364235916957456,-15.54095266777188,28.13163627739517,-7.849975178533601,-1.0282879689711157,0.02003406248035236,0.2700877252455737,-14.237484873534534,30.726952386487486,32.608093766728196,-1.0351884071622446,0.5320659541123758,1.3045666626511154,-88.44575355442448,-12.77687695765037,-24.046036480553816,-0.07975143618080531,-0.9974081758885015,-0.28023493416283096,12.846472076377244,-35.30135124693614,30.02768857287671
2019-08-03 22:39:28.972890,-0.8478620119441506,-0.6012151307879521,1.2323291582724363,128.49048225608692,-137.33618752487354,-113.19180232592238,0.023291087068463823,0.9858458606093465,-0.3110880304853682,-16.1625316011403,28.61857029751396,-8.235681756016527,-1.0267397802522849,0.02460410181173465,0.2650578042566593,-15.611411206960174,32.10455734598276,33.87815294203922,-0.990331526656033,0.47043901309575054,1.278821023600112,-93.77525019134706,-27.241038836645913,-17.06853035276457,-0.08628693941193318,-0.9754333433560037,-0.2930736867838701,10.37567120912122,-31.98731036028306,28.772915005459446
2019-08-03 22:39:28.982890,-0.7514374264572784,-0.6163520474311656,1.1308748179596682,111.73990258015502,-152.51734934077703,-116.7819452893541,0.03124246921693762,0.9691655057057298,-0.30223738873828604,-18.508868477820574,32.243548611287785,-8.20903369828459,-1.0267063039770739,0.029875355084613225,0.2585231357361468,-17.64654448336382,29.344237103004797,34.37924870742547,-0.995636302865742,0.46530626625518784,1.274824946732081,-94.0156943270272,-26.992911282242783,-16.303861286476007,-0.09653505612298421,-0.9659440324619534,-0.2758823041009383,7.660255956297055,-32.1565339154843,26.692853028947148
2019-08-03 22:39:28.992890,-0.6975894629164112,-0.6235540314382593,1.0738375176112562,100.9886787181492,-154.36930997739864,-117.26302302833474,0.025236726960260206,0.9642410145031398,-0.2751464577558931,-19.704857671536363,34.97936717018117,-7.801100951280676,-1.0264428310080225,0.04203190231520074,0.257938285432821,-19.123744840447063,26.17174427965646,34.47598794693714,-1.0166950306963276,0.41505699432891185,1.250229409701323,-95.069162933625,-29.489389350610242,-11.041774198435721,-0.09340889660822602,-0.9614125665182515,-0.2674825168060281,5.687714613822222,-33.717413525609686,25.52054845132559
2019-08-03 22:39:29.002890,-0.6100534493472338,-0.5904092856594614,0.9583238643423071,78.77591724039017,-147.20015381864548,-115.51873923626931,-0.0074754088636655915,0.9666203324972571,-0.27273012399792423,-19.541226220303244,34.62906247331281,-7.704608430762587,-1.009383691322808,0.02786230770949413,0.2624288309825739,-17.912755344668895,25.767233657967168,34.27825423212807,-1.0627365535698658,0.3097552102261312,1.1796772238510524,-98.51696743874413,-40.837108600993254,1.8650697821185562,-0.08783989083405802,-0.9543708139382505,-0.2557281550789712,3.945612663684266,-35.08127626830376,24.430642293974152
2019-08-03 22:39:29.012890,-0.6147842400573054,-0.5438728542159831,0.8860547321462781,68.82422411188759,-147.79927729215646,-116.67904125072907,0.004195170796894388,0.9693082687199895,-0.28697185509755,-19.059198812497904,33.79280900146394,-6.012669121049472,-0.9809732863637969,-0.04707025173657086,0.25717421193386436,-16.588000157836444,19.54824817071208,35.42394606631822,-1.1664161361823102,0.2884039831980081,1.104109757270858,-97.07976417564305,-49.5523491402969,11.92630804788328,-0.0841657693081259,-0.9454786127837226,-0.24245444122011042,2.2978147009915633,-36.536989419290315,23.18392106238117
2019-08-03 22:39:29.022890,-0.7997261885103075,-0.6488290906401409,0.9756894566715959,87.45835939378958,-196.6133904642609,-131.3509179034945,0.03953978960675884,0.977270904428473,-0.28161901167407233,-18.604034477706193,31.65429179811596,-4.260326021745353,-0.9705549858433639,-0.06711499792217027,0.26989431269979747,-15.808100886891944,16.90414236890353,37.22962988788334,-1.254111858351181,0.2873361053162257,1.0923819306137195,-93.36847793775372,-60.32744089460275,16.958363724128652,-0.08162021929249713,-0.9368941682331292,-0.2338789729014668,0.87031935288632,-38.36608606185635,21.996782575641625
2019-08-03 22:39:29.032890,-0.6618861708475166,-0.5478424802328453,0.8966817933810718,72.44072205384644,-159.48108907811996,-119.82203342342405,0.044563314207836574,0.9783075204148906,-0.2736752399007252,-18.327814854699103,30.484080346844664,-3.786120152586459,-0.9685071809456449,-0.06062395728514625,0.2782510961067747,-13.63267294517736,16.21235898857726,37.75408700823366,-1.3138361322505,0.2612221782707859,1.1042348711216323,-88.8105764457157,-71.27696178140667,19.28418515879648,-0.0772306664878403,-0.9279293932321644,-0.22628850885119606,-0.31695374131905835,-39.775597710606505,21.024795187242677
2019-08-03 22:39:29.042890,-0.4365259626646602,-0.3660203993721622,0.7556690763320557,47.31154487130305,-87.34265623470786,-94.76658522938651,0.013006898970496015,0.9753325458504246,-0.2712994370147232,-18.005112558235126,31.07313139633078,-2.391580440509412,-0.9747804402106139,-0.06425637943449368,0.2776415836223286,-10.78021403319562,19.53012900319446,36.06055472592775,-1.270351361519856,0.21753237304576525,1.101080194388502,-82.52059404688296,-80.52521401595173,22.216903693884223,-0.07653981415229491,-0.918614780540678,-0.22320606221476452,-1.3335753523939693,-40.612107003625596,20.26304957560658
2019-08-03 22:39:29.052890,-0.41538516446896534,-0.32857680086532703,0.751095132127735,45.220339494564655,-78.33414863232578,-89.42155452797797,0.016119365129583427,0.9785611729989546,-0.28330124192389944,-17.892059907694247,31.221776427748694,-0.402855932182689,-0.9808823424733112,-0.08517332042957214,0.27679570005990833,-10.615901396682284,24.833087089269718,33.48371935364535,-1.0658383794313702,0.168288177457934,1.0015437798684976,-72.33602813645167,-85.54480241206059,26.963518966051556,-0.07551460437826563,-0.9103035447007779,-0.22305233801935795,-2.4590155450616002,-41.345552993818956,19.307341544097078
2019-08-03 22:39:29.062890,-0.40402618752889646,-0.24669583406196643,0.7213081070575997,47.00228367252675,-69.15656559137005,-76.1298811044288,0.0283549444944372,0.9784786118654476,-0.28055200357843046,-17.918646939279586,31.283155496537436,0.332720330744818,-0.97451977634277,-0.09588360357893633,0.28729107747766514,-15.551463372642914,26.226027289810993,32.79836067932083,-0.9188332239659124,0.13776667456737898,0.9201653703677191,-67.42235264953649,-86.20169673702082,29.572047899433247,-0.041837119899796285,-0.9068902368836729,-0.2074631243287088,-4.190176578272954,-42.69912010331388,17.199107648285825
2019-08-03 22:39:29.072890,-0.38744810845423355,-0.1663106406406531,0.6717962235135783,50.22988153749036,-68.54990203359043,-64.18236968905705,-0.0028092165277236684,0.9721426595978807,-0.2531053299393096,-17.702033966610575,32.9845427000205,3.08012851484327,-0.9683798524681418,-0.10087923684791891,0.29269488007291733,-19.19826454341765,27.05279943450117,31.253557534715267,-0.8407903725192666,0.12977208501970844,0.8633443452469742,-66.89790550644126,-83.18583488386511,31.422614175089777,0.010238645680450497,-0.9090313414424226,-0.1885846027372464,-5.2608723151793395,-41.2715257526467,15.129047647044263
2019-08-03 22:39:29.082890,-0.365576634094404,-0.12996729480688107,0.6558034931356349,52.395235244664164,-71.08913602295571,-57.348328095536644,0.0018957296683178384,0.9792209435081721,-0.2697873197685075,-17.042399202122482,31.44476019061341,5.547001848886439,-0.9588562178224892,-0.09417830621527308,0.2779821931293931,-16.20765696040666,24.99743508477521,24.930818124789624,-0.7639543584147301,0.13694343514578253,0.7860951349197782,-66.25268172442053,-77.85158593126266,34.94749134087219,0.016412933837998227,-0.8930872855421064,-0.20028728089017328,-5.118374263805935,-34.699566951589944,12.669821321064786
2019-08-03 22:39:29.092890,-0.3066021649016495,-0.0795031097731868,0.6103005129083341,57.62817729128813,-79.75751663058406,-41.967776676536964,0.048257769184113154,0.9864526282962661,-0.24911729547549225,-16.9107869958502,28.344490746322137,8.290104934348392,-0.959451332376932,-0.10644760359610661,0.25804508968412926,-13.570865193846513,21.60286312541079,22.25726693440959,-0.7135887618005516,0.1285656617290097,0.7077252830841088,-63.88273871353599,-64.57548073480747,43.55115986421761,0.03271640827027573,-0.8934109349792123,-0.2129335110275515,-5.96140437141488,-30.839948426098356,10.681067490332284
2019-08-03 22:39:29.102890,-0.2909673837049114,-0.06923539411336545,0.5841117544716857,59.50815958667957,-84.5192633739526,-33.512182877957976,0.03313998640664656,0.9903148108588322,-0.24362229380455794,-16.969439380497754,28.54104113892871,9.528117607996473,-0.9572021611140938,-0.11638477600488438,0.2555826399185403,-15.483898902352225,20.884550101861908,23.34326607818453,-0.7249930137389581,0.06325414092061961,0.6708101917750746,-61.944451933366956,-50.790374661363046,50.429676584970814,0.048131138264623105,-0.8870494635923875,-0.2326554323526548,-7.55171067183147,-27.506311439212777,9.318721604647807
2019-08-03 22:39:29.112890,-0.2389951914938291,-0.04021594636785099,0.5557513559294438,64.65133092223502,-90.82703354380432,-15.857568559286376,-0.010372195746355997,0.9925131995595116,-0.28763985438519946,-16.881038215904226,28.521026901915956,12.937267616664995,-0.9662077501116992,-0.09013568223566262,0.24210115165193472,-15.544037508011591,20.93217547900339,22.440303045793133,-0.7773144876859307,-0.026783244552979327,0.6557613248659679,-62.20976464827408,-47.639544451462854,55.03706232700276,0.07203155023964125,-0.8865872898699048,-0.25188449954515535,-9.049933047017147,-20.36108182096159,5.539943611662692
2019-08-03 22:39:29.122890,-0.16713062237484844,-0.0068385214956893075,0.5619358667933841,73.07951941524823,-92.96178531357235,2.5424759839471447,-0.06213800640900459,1.0791537069132668,-0.1994827830840322,-12.675077060819856,38.83032837368849,8.075436884827669,-0.9770205370582137,-0.05832015201433258,0.22787445583437185,-12.323419936354652,21.051186168314093,19.852727529487066,-0.7614292734177108,-0.14275960401882148,0.645226697953345,-61.81469142650472,-56.248752413997785,62.192508677848025,0.09583608766893138,-0.8673003380087049,-0.27507129658362156,-13.359630723928214,-18.714564895817883,-1.8769468408164092
2019-08-03 22:39:29.132890,-0.12265089651106162,0.0652356073095464,0.5956557140299188,79.54851081409169,-91.14388672094259,18.539856031325357,-0.09862630611632418,1.1781358122328354,-0.0573249352742452,-7.325006564412541,51.27550507862733,-0.3950768639559259,-0.9946643483618909,-0.0374367269770949,0.23096282326752168,-10.747940068546601,22.05402193883397,18.359382939587412,-0.6999385524191797,-0.18881066766210863,0.6354411725201482,-59.933194751053826,-61.83603795803878,65.92618069499396,0.15606411253592467,-0.8794304717289766,-0.3142434861715258,-17.216727408849952,-20.116265502204406,-9.917590325683836
2019-08-03 22:39:29.142890,-0.11957722426011086,0.12162299118298649,0.613466438475782,83.34278247165247,-90.24958376544298,28.21321127263402,0.00041123714514784503,0.958409125972991,-0.47881781713103794,-23.22658038960955,14.019256574144684,25.398839864833693,-1.061737021442385,-0.003888795448347532,0.25613499876824014,-13.383192915877256,29.016313665385326,18.12544602151627,-0.6413371391278573,-0.21731510947210692,0.633373568657784,-57.780561783528114,-63.54432263300263,66.45330457080793,-0.5087474774636119,-1.1501341569624186,-0.418981396851805,-22.318378040275235,-18.96224439285198,-18.911622737934657
2019-08-03 22:39:29.152890,-0.12534878782736353,0.17994326847766032,0.6387299355446012,87.59305511032466,-90.15354127823963,39.563154116754816,0.07574565193724758,1.0147893824020449,-0.17142696568865107,-20.46392285238936,21.623252659027354,19.781395402142778,-1.1389018848894692,0.010577774993707356,0.29791976844129353,-17.478838008359045,39.424079515658434,19.8509675353476,-0.5396770385840414,-0.2814004882692166,0.6335866714813498,-54.155430009523705,-65.74265997653573,62.78890530635626,-1.8495276589542173,-0.9016789941065738,0.03314872328496949,-28.668176189333366,-11.48182611369545,-18.58223597885566
2019-08-03 22:39:29.162890,-0.12822906173113777,0.22791070770823432,0.6661093077255693,91.05458375042187,-90.78524555767997,49.812498020068674,0.07942071849846111,1.0149883566547073,-0.20889412395257118,-21.547443567210507,17.37253205255542,24.696900183953012,-1.1921944473028976,0.005052752356097888,0.32758966366751546,-20.1787184505906,47.42619119901937,21.318741919267055,-0.4577011460660318,-0.3566393861107832,0.6535074546921981,-50.04878339153838,-62.473927241338075,54.67435696362693,-0.6044145231954497,-1.4321004538209154,0.5928454493347317,-36.36321682420294,-32.757276014919555,11.001874142941542
2019-08-03 22:39:29.172890,-0.1271011745736238,0.2813600253204911,0.6822371669629914,93.78671492280307,-92.80957022633315,61.06952194988426,0.02909325461219819,1.0254402435479106,-0.19488981476097977,-19.65766238061852,21.611044710057993,26.740368910105452,-1.2374221999611699,-0.006391565187481081,0.3532521248298389,-23.942536259700397,54.99994348427363,23.168379940762566,-0.3774815585209782,-0.42630516748940833,0.641849170912571,-44.09231121346864,-56.05585404139293,44.3222478655014,1.0462638569511207,-1.2290863409912403,0.2537874821951564,-21.276422474836735,-55.50591058185354,17.12303225831959
2019-08-03 22:39:29.182890,-0.11909192773864657,0.37698638720004163,0.6745776007414579,97.94225918302169,-96.54039698002128,81.2802603627187,0.02367065200282559,1.005742895719091,-0.1797722978646044,-19.219819877908204,23.607761389763944,28.485527234009577,-1.2285716540016833,-0.012233818881387254,0.3558703360423188,-28.395547324136235,51.027791700664636,26.53184869629488,-0.29295173685722803,-0.479537199925266,0.6036131389972572,-38.11244433644792,-44.00421301494411,33.6626844447485,0.7868307202796376,-1.1447999805740625,-0.22692235521042853,-6.087589367416415,-58.37307685013016,-14.482349052370452
2019-08-03 22:39:29.192890,-0.10495378315263099,0.4218924362637347,0.6456727996809919,98.6674762234914,-97.72819911497879,99.43493873208948,0.051213382164707555,1.0142266241285953,-0.14695146516212962,-18.04899296857119,22.21321530819605,29.67833170834574,-1.1686405385236354,0.005349864744507653,0.3296862388431098,-24.93850195688694,38.11889423691903,27.18722062941369,-0.21576340609051683,-0.5399013981216442,0.5549621120859954,-31.02397971432019,-20.52326288368492,21.32585205409585,-0.2667230001854588,-1.0806098095304242,-0.18872426331427958,-3.8179705200316785,-15.845511858188441,-30.366787641802567
