Time,LA_AccelerometerX,LA_AccelerometerY,LA_AccelerometerZ,LA_GyroscopeX,LA_GyroscopeY,LA_GyroscopeZ,LL_AccelerometerX,LL_AccelerometerY,LL_AccelerometerZ,LL_GyroscopeX,LL_GyroscopeY,LL_GyroscopeZ,N_AccelerometerX,N_AccelerometerY,N_AccelerometerZ,N_GyroscopeX,N_GyroscopeY,N_GyroscopeZ,RA_AccelerometerX,RA_AccelerometerY,RA_AccelerometerZ,RA_GyroscopeX,RA_GyroscopeY,RA_GyroscopeZ,RL_AccelerometerX,RL_AccelerometerY,RL_AccelerometerZ,RL_GyroscopeX,RL_GyroscopeY,RL_GyroscopeZ
2019-08-03 06:54:43.672732,-0.14760925423911828,0.94947273190424,0.31261790416939295,-1.2657503650477648,13.499956983789529,1.058806146732918,0.11731286539803791,0.9905867493868923,-0.10263671047428574,-0.08626586953153968,-1.0600604224710874,0.4220030974947266,-0.9702696796261479,-0.02297572929631799,0.36779392881515527,6.173093394669122,1.8693111512317104,-2.631024682788989,-0.18986881384857654,-0.9655496475516329,0.391323607595131,-2.088589066964195,7.264340710017527,-19.888049066663058,-0.04930030509139955,-0.9949428586636239,-0.1560656738762235,0.3342055088540359,-0.025980069173981712,-0.7169845292831047
2019-08-03 06:54:43.682732,-0.08977780471281388,0.9846762339401549,0.31780238974931213,-2.2587626679864083,16.97128934958874,4.658238802491923,0.11848021735483434,0.9902926740785172,-0.10238537143094692,-0.09793187525366498,-1.0764725329567066,0.43352845644361254,-0.9691486507415211,-0.023164310645850304,0.36789712864377455,6.078139223415198,1.9707896795409707,-2.7325924308693232,-0.15225783023801476,-0.9972431360245901,0.41860169507884665,-0.34659884884449277,8.640692370066247,-24.467848176313343,-0.04829912955634996,-0.9953033268691911,-0.1544251841285868,0.33528630436699225,0.026597337475914563,-0.6768342562412353
2019-08-03 06:54:43.692732,0.0016849330352850566,1.0673338945303588,0.33192137050861226,-4.138466289596483,22.619076378754354,12.970995082917375,0.11907147592991056,0.9903103053686266,-0.10247993296144307,-0.08592243060229238,-1.0702081763594467,0.42728191191822257,-0.9680534349774376,-0.02335969517007996,0.368104871302836,6.018556281892916,2.0287781761823624,-2.7968090793795475,-0.18739009636198417,-0.9503377342941196,0.3681507977044563,-2.152248867243205,6.68348163606135,-19.557736991011456,-0.04716479959847684,-0.9956961866891705,-0.15267987510891262,0.33079526775119883,0.08341321472475495,-0.605647166429325
2019-08-03 06:54:43.702732,0.08808016368898341,1.0875148786166446,0.3517326577055337,-7.925638396346272,25.46055134437707,25.833496050294773,0.11932000665555999,0.9905061975818018,-0.1027559330704,-0.05606749548198801,-1.0438508510704212,0.40280801538361616,-0.9669590546308022,-0.02360805293176809,0.368373070561146,5.967674521678713,2.071669170964264,-2.8366563973711747,-0.11010479126414832,-1.0288074653653518,0.4415323894099637,1.4817670321448635,10.30742529245605,-28.90828231785909,-0.046098779888398805,-0.9961196722655001,-0.15106762206789742,0.3165995271676841,0.14721365816808468,-0.511123734644413
2019-08-03 06:54:43.712732,0.18544792304050328,1.0892685313353427,0.4091511472023654,-17.059729405984644,26.855638726425155,43.132848604094036,0.11937129091366716,0.9908102266315317,-0.10317002616248724,-0.008954642452282592,-1.005889346430111,0.36174688004422784,-0.9658526474334856,-0.023895791098315453,0.36865912904408876,5.896419619049815,2.131684277736622,-2.8666063661966166,-0.024099689062805976,-1.1293324535693738,0.5403977677877805,5.83556573075983,14.695864951523717,-39.99438720400204,-0.045296068556810995,-0.9965588698760276,-0.14983286162273807,0.2896298119418096,0.22182814528184483,-0.4000715800690283
2019-08-03 06:54:43.722732,0.297907354013004,1.1156925722307238,0.45116844759445485,-21.604695369196893,27.573971623756286,53.62166485534336,0.11931773387845643,0.9911622373215119,-0.10366514262687752,0.04891064709767709,-0.9627797318991582,0.3085948886096036,-0.964725719792741,-0.024207649982046366,0.3689184367858901,5.776619456134688,2.2400047472157842,-2.900668982350041,-0.009597200178622416,-1.1227929725356756,0.5479561228769452,7.2610443545328485,15.947786983113783,-40.732286824821074,-0.04484634878289629,-0.9969927830117095,-0.1490804991529544,0.25084852516839085,0.3081924638978884,-0.27892858209550986
2019-08-03 06:54:43.732732,0.38574366284876327,1.1288288362493435,0.47862710236692985,-26.468925783726892,29.77318602010737,61.09918206543702,0.11952261242342097,0.9914120674942979,-0.10413394287246072,0.12857431480436,-0.9236278958057378,0.23553078500168134,-0.9635991582022605,-0.024550914142763718,0.36909620823562905,5.592411886132118,2.413339340539673,-2.947860483100959,0.08342531638582984,-1.1374015629364054,0.5894561933176047,14.243240632668362,22.164050168178157,-47.58618500171276,-0.04472897668456623,-0.9973915967244572,-0.1487756733369879,0.20527327751000057,0.40464052398267686,-0.1526517217695364
2019-08-03 06:54:43.742732,0.51828209701577,1.171356468846199,0.5418362966573206,-40.634765780297094,41.59742628201058,76.71191991400107,0.12004719630474872,0.9915122619745443,-0.1045273417139584,0.22246511248869333,-0.8940981851819013,0.14783054723629818,-0.9626087430389249,-0.024872751956150005,0.36916161545238935,5.382148914524763,2.6220563123098537,-2.9965542297509775,0.12531930324731907,-1.1332113467624327,0.6023116332732071,17.937129990640614,25.726801083449157,-50.160051033379965,-0.044921316087598716,-0.9977252490509262,-0.14887870617153942,0.15821173173717284,0.5093416067080493,-0.02674842532878972
2019-08-03 06:54:43.752732,0.6525569659557822,1.1935603784112676,0.5742706629730817,-50.63769901452721,50.247024948832276,88.16215847537892,0.12079340284927644,0.9914947132185958,-0.10482258745786331,0.32330407521978816,-0.8719446636679662,0.05034791930262686,-0.9618405578397415,-0.025307284570760976,0.36921778098922564,5.170601372989288,2.832230678315613,-3.040768074842403,0.21511203781638666,-1.1419367817403279,0.6435661765674218,25.027288384213964,36.205357375679014,-54.62077215151337,-0.04540022773924235,-0.9979636536501064,-0.1493496959336343,0.1149509284513871,0.6204743511843881,0.09338475453573022
2019-08-03 06:54:43.762732,0.6731231472826977,1.1963132649952217,0.5610720749850684,-51.796817474802744,49.445908260835445,89.20231091914921,0.12144916686137754,0.9914574713495563,-0.10513242255286205,0.4082820529692698,-0.8571055763911793,-0.03913423886329598,-0.9616478440045222,-0.025426381348950196,0.3684358245000341,5.036466643636058,3.0028903219836827,-3.0476960995778963,0.3074213104637313,-1.1652113200283525,0.6816250026255013,35.670150452058444,55.132014349652515,-60.11495969780104,-0.0461425723867457,-0.9980767241809871,-0.15014874090029784,0.08077790825412276,0.7362173965220759,0.20235126513302357
2019-08-03 06:54:43.772732,0.7125425149618363,1.251364512326554,0.5426012776126695,-64.9519710168204,79.57129136275246,101.82170998448191,0.12178962179971117,0.9914800393685387,-0.10548602155424705,0.46286043097065593,-0.8451238937206506,-0.11052137636398203,-0.9619914170472094,-0.02539780801070579,0.36707384323957315,4.978137098620873,3.1209513334409373,-3.023369449065709,0.3365054701589392,-1.1741597076509083,0.6943896789836463,40.85680729313622,65.32962200032657,-62.4416073705874,-0.047125210777357346,-0.998034374302558,-0.1512359393485554,0.06097971174685915,0.8547493818314951,0.29475455377209037
2019-08-03 06:54:43.782732,0.7892893967407053,1.292564964000322,0.538347666121124,-76.31107650438155,102.08913050647404,113.03116189542719,0.12175242726929118,0.9915962855000916,-0.1058809672382449,0.48909569974126266,-0.8320722427006274,-0.16481893748386417,-0.9627760730797689,-0.02532421522853958,0.3653221820845434,4.989236201582212,3.1824933698997775,-2.9747075953587094,0.34711224497067344,-1.1916363530834915,0.7133485113839123,50.74856471034921,86.35131501514216,-66.9727767120085,-0.0483235267816171,-0.9978073184088627,-0.15256994046560166,0.06077419331283776,0.974137645213984,0.36516588421492674
2019-08-03 06:54:43.792732,0.7731798709121027,1.302148998976802,0.5407586264444182,-78.48671921443625,108.63222791087802,114.90340961673868,0.12147189851652787,0.9917705473056653,-0.10623887454576646,0.49754495714622304,-0.8152719824828303,-0.20990582784626652,-0.9638820718430106,-0.025219905497882084,0.36339631193512445,5.036515268188701,3.2129021229855286,-2.9230504978168907,0.3141802357558521,-1.2122342862102076,0.7520632661167792,64.01336582030906,115.60893406699938,-72.9644299570183,-0.04984420422185597,-0.9973038567674355,-0.15424032329299742,0.09022533476533101,1.1027219295600454,0.41253654396816897
2019-08-03 06:54:43.802732,0.6082997113379273,1.422494904105322,0.5588538844947625,-104.66352648287379,188.65551193483563,139.45760878334224,0.121005612019345,0.9920006596379451,-0.10651960828225568,0.5000703370302023,-0.7908540851179733,-0.2538005135567707,-0.9652061457092673,-0.025182462572455152,0.3614973841320123,5.110011261619765,3.211719217186838,-2.8771462150105305,0.23881462113796,-1.2263351547206152,0.8208169414712996,75.09818100954847,135.26776630626676,-78.84911420533,-0.05139051413446207,-0.9966873307731249,-0.15594953750026921,0.1350979612889596,1.2200016152577287,0.43331331549755653
2019-08-03 06:54:43.812732,0.4738050604621119,1.4398359305235773,0.5853357442579479,-118.34133039928196,226.70588939393326,149.2714314790575,0.12048537593480768,0.9922756823815676,-0.10671776654831222,0.5062475902597231,-0.7564094783333108,-0.302143109427099,-0.9666404648027599,-0.02528640468892694,0.3598305159507392,5.193311968964241,3.1856440311318486,-2.8492302492440924,0.36667621818647544,-1.2309775426693235,0.6948264017230229,64.20855125275693,126.21787013237116,-72.26787149930493,-0.05272831071940848,-0.9960965126348544,-0.157463617026516,0.18269469656856374,1.3106159846683902,0.4269452026943464
2019-08-03 06:54:43.822732,0.2506995696992636,1.4264940277291671,0.6524553404405034,-131.4393625855656,254.9656259657402,157.2802257254954,0.1197371511948493,0.9925914262890242,-0.10659875615105723,0.5361184921002649,-0.7032757741451802,-0.372951408624775,-0.9680771992477104,-0.02560625008396563,0.35860082466683746,5.270005177310974,3.141375943448705,-2.85153810282204,0.1810496630262731,-1.2419232810112186,0.8724094573739578,84.03091499006867,153.0065810980356,-83.57793958830366,-0.05368133611152348,-0.9956454915750184,-0.15862428623371994,0.2224829012179936,1.3583063515822993,0.3910419181298097
2019-08-03 06:54:43.832732,0.08060560996945319,1.416896036204457,0.7327272214124216,-136.86652980768116,257.3981375800237,159.96368194402757,0.11893884243690318,0.992929369950283,-0.10625956362094016,0.5884077075164145,-0.6341535774546687,-0.46260757970991545,-0.9694085191683406,-0.02621651699423939,0.3580134275558395,5.323678673748805,3.0856143327655503,-2.896305278048838,-0.0496092723550066,-1.2465049062134925,1.0900020717639507,106.7249771971951,178.53558125563163,-96.87278108862175,-0.054236083682447436,-0.9953469151109998,-0.1594030253012284,0.2527763275607309,1.3673701208958107,0.33185705889457284
2019-08-03 06:54:43.842732,-0.03707608055674122,1.4246448012504214,0.8093584575208496,-138.3038287255577,249.7171034889146,160.63021520339493,0.1182051976538897,0.9932530032172531,-0.10578109307403485,0.6584401297664343,-0.554758401871009,-0.5657606804577043,-0.9704838786386403,-0.026046501989498934,0.35755881010591156,5.419709321797099,2.967096371407607,-3.0382291655500007,-0.012435243774251403,-1.2429478913143677,1.036596036059336,104.78857904803262,164.62408989074436,-94.85068963010919,-0.05444128826755154,-0.9951905181824987,-0.15984203065393218,0.27337168269273066,1.344793063159026,0.2560577693896833
2019-08-03 06:54:43.852732,-0.16157525834103373,1.427409061723745,0.9052589676863232,-138.14621426794494,234.62342350170462,160.61553268468796,0.11754867135226814,0.9935675338214986,-0.10527310524642448,0.7345356938427996,-0.4679479858332344,-0.6723887161776392,-0.971292082832379,-0.027761518848735327,0.3590587764773998,5.356656297273952,2.923647341442318,-3.1934851998206764,-0.10884074504532254,-1.2380451167998607,1.0903171058695689,117.4021882181692,157.0518988695149,-100.18065595422186,-0.05433638656833687,-0.9951567696120596,-0.15996661808971022,0.28584021876156207,1.2971742271017705,0.168742583574818
2019-08-03 06:54:43.862732,-0.2988794064382053,1.4229776741580826,1.0629667989796763,-137.93033505871549,199.06881509853596,160.09426503893232,0.11708083352266663,0.993837715340304,-0.10482090630620301,0.8113466931739644,-0.3795196107444778,-0.7766302524622879,-0.9716788993519542,-0.03019202946201799,0.361942138156105,5.206955007388522,2.899002173044708,-3.4204353084507977,-0.1436356420761376,-1.231207423063122,1.1100343230142449,122.1710347092046,150.59312820235564,-101.93929456638826,-0.05396967237264294,-0.9952349648007269,-0.15981818331256098,0.2900628181170669,1.2314810397782372,0.07650423948199105
2019-08-03 06:54:43.872732,-0.3213209695818679,1.4160651383005598,1.1477622976960606,-138.11257312591655,171.14225347258918,159.4759410309784,0.11666071868225528,0.9939660079890114,-0.10432771720557456,0.8877887865899705,-0.2870805421212374,-0.8833575806857765,-0.9715384758750887,-0.03343162272820164,0.36641967142948545,4.952139904717631,2.902233465518556,-3.7301543933560604,-0.1922146967971002,-1.2312320920438151,1.146005195431273,130.67829044514355,136.58451647626669,-104.28520592329862,-0.05338682744510598,-0.9954117961233391,-0.15943337993791282,0.2864188662245754,1.154572290628161,-0.014505177184006146
2019-08-03 06:54:43.882732,-0.28848063074255953,1.4229633801360757,1.1663515412565955,-139.00260553573048,144.64935448775935,158.7058476387635,0.11689363909664777,0.9940993692211634,-0.10432412790838341,0.9427271591948142,-0.21269655437893445,-0.9579294438030893,-0.9708889396647666,-0.03722028453526798,0.3722136110736561,4.6069686747881065,2.9321615026539454,-4.124740219401485,-0.24438950338670282,-1.2548308799721253,1.1771508641733364,140.0770471244546,118.83821217703742,-105.58292999423544,-0.052633533550362176,-0.9956739559547344,-0.1588488615811938,0.2752877485494175,1.0733067690912783,-0.09813358071838182
2019-08-03 06:54:43.892732,-0.21612343182687144,1.4616386586702124,1.1500270350726443,-141.76582591013835,91.06166516159338,156.18047083006402,0.1176409880526733,0.9941410320376612,-0.10471534230012203,0.9750140960288536,-0.15405221935710506,-1.0050932422086483,-0.9698700009936156,-0.04093886543965261,0.37855382607227517,4.218746302519605,2.9786023709770895,-4.597563244127916,-0.26259437341962366,-1.2764005560596314,1.1933703007227272,143.95406208748395,111.41780870063687,-105.54642346031928,-0.051755472453047735,-0.996008136669752,-0.15810128185783226,0.2570488505569234,0.9945432646073242,-0.1682288854163444
2019-08-03 06:54:43.902732,-0.1944524978986438,1.4810799030437716,1.139471158969325,-143.89268086929897,69.47685295577008,153.86018673265391,0.11891351177604398,0.9940681959983289,-0.10554308876154024,0.9792790366798914,-0.11475530924730629,-1.020246088511668,-0.9686214238317563,-0.04395493593738054,0.3846558912504288,3.834756377423313,3.032482113425906,-5.142071019223447,-0.29637073955489796,-1.3317087448422422,1.2283733523127358,150.58060189088428,101.34756169689427,-102.50233023027276,-0.0510000195661188,-0.9965073444680919,-0.15750059988390447,0.2299187708605708,0.9205317493362516,-0.216838763977643
2019-08-03 06:54:43.912732,-0.19192985738286167,1.4920145622251724,1.145058699595919,-144.66247530536504,64.07603247846582,152.9762166991939,0.12035304137161389,0.9938340855171667,-0.10655065898293145,0.9643655045203923,-0.08896996240489198,-1.0166389497737247,-0.9672829721493089,-0.04563606652447676,0.389735381433203,3.5022824890104127,3.0847267729383097,-5.751711096376164,-0.3225745594912405,-1.3743757533668066,1.2515405754231632,155.76859421377918,94.24346772608986,-99.6804446415257,-0.04988931549914908,-0.9968823103191101,-0.15637404347642558,0.19989089385924375,0.8700942328897181,-0.24248406200756514
2019-08-03 06:54:43.922732,-0.19491446120804984,1.5080261773738177,1.1776183469056627,-147.23184415006253,54.58403358681001,149.97342773247652,0.12148991024684562,0.9933876820314633,-0.10740563856460042,0.9411962204470185,-0.06870035260076587,-1.0110736618757663,-0.9659944099163947,-0.045349827696966306,0.3930078714456845,3.268608226792094,3.126262392452225,-6.419931027274162,-0.35377970786458757,-1.401399363718706,1.2509818566164006,161.43081602060522,90.96952374878853,-95.70327174275927,-0.04873365100159594,-0.9972591011925596,-0.1551178058932194,0.16451944213259478,0.8437643800508967,-0.23681088151252352
2019-08-03 06:54:43.932732,-0.2028545835388302,1.5331506917513549,1.217460292863505,-156.0638643793228,42.97846867499457,142.81650167465372,0.12192807000921933,0.9927947296317229,-0.10793376982806979,0.9185979255826067,-0.05843689176410464,-1.0111769722421158,-0.9653977612791513,-0.04505188605735651,0.39428315363411504,2.913244432836019,3.2564609874359083,-7.060099108088433,-0.42760022312273005,-1.4249262993563074,1.246935229761385,172.35673592460103,87.44538020895523,-87.38928481111638,-0.0475117986459733,-0.9975648190432477,-0.1537391434348207,0.12603844550952675,0.8401029383283409,-0.197647198279538
2019-08-03 06:54:43.942732,-0.21598688184867978,1.5426016712101696,1.2515328086520388,-165.9711999545731,45.23257788397367,136.45063406585894,0.120900155156791,0.9915115657140626,-0.10714263841381577,0.9158007627709519,0.0025202238090473892,-1.0718736568497722,-0.9641425590893599,-0.03643080122386036,0.39101372965279957,3.2779698605888266,3.144483964409943,-7.903262055647279,-0.4686928617365948,-1.42583503961878,1.2449078211830078,178.43498165705594,86.82323924997435,-82.23127388197396,-0.04655786393173979,-0.9979769976307242,-0.15265249529377498,0.08039701341565114,0.8510276851432017,-0.12419617948128353
2019-08-03 06:54:43.952732,-0.29773836174838775,1.5070908147154662,1.2764529357937198,-182.6352451318704,60.261510333338464,125.30643425392692,0.11863860392587157,0.9900147511797391,-0.10559822481427304,0.9247250927980021,0.06682032192420942,-1.1560219485374343,-0.9632393372903182,-0.02378389415763081,0.3837635055906471,3.9176760425012556,2.9925572973920302,-8.78694064366689,-0.49197027723824305,-1.4116711478079487,1.244627760196362,185.36674176899913,87.81402963929368,-75.97017643964276,-0.04603592264802334,-0.9985266644586714,-0.15209703654703885,0.028158231209082528,0.8684426016292055,-0.0171005001927666
2019-08-03 06:54:43.962732,-0.3658496177792041,1.4760574464941554,1.2669174392598466,-192.7193516811971,72.21199923402767,118.71863637631087,0.11587011137626843,0.9888795844897728,-0.1042159783496376,0.9223684592583586,0.07726556156443887,-1.2018204958636398,-0.9635008136298367,-0.012377852956492756,0.3743669685183338,4.389433468919337,3.0836100674797255,-9.485932803909417,-0.5523549672492851,-1.3840366777016493,1.2334593281651212,196.48651000498876,90.93826109655774,-63.82167070589133,-0.04614660013781775,-0.9992747965461856,-0.1523498868684581,-0.031009828294583437,0.8842436420177567,0.12324917928060972
2019-08-03 06:54:43.972732,-0.4387045452088775,1.44609568026281,1.2635612381599093,-200.72814043249946,80.945458158938,111.65767472103774,0.1132305542063357,0.9890316775493365,-0.10422621207223835,0.8986464500113746,-0.05849742639477485,-1.1434249966007868,-0.966694914208039,-0.012550099610389028,0.3655093712572794,3.6132824391147107,3.8180113176403436,-9.706494618197349,-0.5882074064764343,-1.370670968459195,1.2325983640257885,200.20213507474355,93.02519311998215,-58.88402754757945,-0.04693714414142344,-1.0002038108999574,-0.15349750565673234,-0.09606860343394331,0.8917836862637428,0.2952251096909804
2019-08-03 06:54:43.982732,-0.5416277029290043,1.4083126722926915,1.2589536254578997,-211.328421889826,91.86624418058646,101.7172187766562,0.11113068053841435,0.9904409152918497,-0.10575455529735442,0.838206116910743,-0.3329187172173667,-0.9625816128566587,-0.9726847970472295,-0.025184360097910415,0.35829549960196777,1.6280881022349167,5.305379236478904,-9.34970308440733,-0.6132374839012178,-1.3634763901676736,1.2365376808593451,207.71203229923816,96.33262630356951,-49.51282510145962,-0.04787946391839474,-1.000977386693401,-0.15490422486737643,-0.15991326392891098,0.8925174813441717,0.4936812551127911
2019-08-03 06:54:43.992732,-0.5671271932935922,1.4029200924826422,1.2341132080107045,-212.65838020335198,94.0777862284635,101.36910594098802,0.10964116682374087,0.9926478920907653,-0.10829544051946055,0.7400087432693656,-0.689762610642294,-0.6801590208721308,-0.9799315794472825,-0.044980389216064745,0.35225412017131763,-0.9788258453328322,7.339043516194934,-8.575031228408564,-0.6195998165796059,-1.367685539066389,1.2650205831718768,209.76105817177228,95.05695100785637,-47.9598419615028,-0.04842850461812045,-1.0012583326535756,-0.15586675311052103,-0.2152745359570732,0.8915990817769637,0.7125557833054791
2019-08-03 06:54:44.002732,-0.6598623590985547,1.3618082808102283,1.2962378607078406,-226.59462311627183,95.36688335101394,79.180425954534,0.10883029600739395,0.9947782912123024,-0.1109783714857172,0.5845724556850521,-1.0386311026162907,-0.32684606086410395,-0.985848907967058,-0.05849328472618595,0.3459986469882472,-2.3943458245062876,9.632487381071737,-7.515157827554726,-0.589846227418132,-1.3828682087467632,1.3024184604271678,199.64966998402053,88.91222174677455,-61.83589574386736,-0.04743358039038456,-1.00039169659033,-0.15514665244240883,-0.2505915130370006,0.8809856047264741,0.9431213499169514
2019-08-03 06:54:44.012732,-0.6980494972798005,1.3781192038559862,1.2529237779178537,-234.70459130214024,89.23847124002658,64.22998655449831,0.10880887497460939,0.9962708571514076,-0.11323419686596037,0.3657530917490795,-1.3152722762465507,0.07517637337568328,-0.9885235824253433,-0.05813381530736572,0.33889139051256006,-1.698764625836536,11.944950611750347,-6.338039926882334,-0.681291666777654,-1.3395638377945351,1.1789301020114593,234.44466230050085,108.34798878517964,-14.623782295850916,-0.04517830860956293,-0.9985069413086708,-0.15286240626593214,-0.2658389933977162,0.876752487396776,1.1821972036516417
2019-08-03 06:54:44.022732,-0.7014624866696898,1.3650269714335825,1.2137290182021476,-237.75365777393824,86.02142779917463,57.336814606511105,0.10967316365160898,0.9964689349278427,-0.11439955948217642,0.07389233996793683,-1.4474842524416007,0.49968252422778214,-0.986462309094152,-0.03738296378585523,0.33014149837980844,1.8995209898429257,14.048589976040775,-5.194486287781705,-0.65872734007513,-1.3537223484219643,1.2207908500332234,228.97429452926283,104.28187844085602,-23.179264562787232,-0.04345860075000867,-0.9965882100771778,-0.15064032926312013,-0.27433962364331543,0.9142455648767038,1.4317155321695825
2019-08-03 06:54:44.032732,-0.7025788440205369,1.3420979950081624,1.163980257876942,-242.87808764427214,79.49692233962482,45.02149406416864,0.11137376530719505,0.9951939828923059,-0.11419864542564191,-0.28013444659127607,-1.4082859512682087,0.9233880279516662,-0.9820285183360511,-0.010749969111801587,0.32067826213698297,6.110243743874373,15.990380667339704,-4.175674238093166,-0.8275798612260162,-1.2390998168999208,0.9768104101272915,253.9260144562335,125.51872154533167,18.326393869284402,-0.04446637922130679,-0.9957532827092209,-0.1503895587700425,-0.2902461276424684,1.0472264895316152,1.720020164684388
2019-08-03 06:54:44.042732,-0.7107841591173407,1.308004295110928,1.1298488850525914,-247.55440011854986,71.16419343744704,29.028857469213495,0.11345627341429776,0.9932831623580128,-0.11313490045439445,-0.6407087624889989,-1.2643974070200195,1.339272290464581,-0.9786698999267882,0.0021415014085367483,0.31159330809815816,7.8804590867678215,17.862022432039065,-3.3720468007429614,-0.7965982455686504,-1.2835151683079913,1.0565609571152685,246.21428006691042,119.55693568606843,8.87879051330358,-0.0473962819659528,-0.9957463878924856,-0.15157987153855504,-0.3120469534326137,1.2366537122359156,2.0011777424792636
2019-08-03 06:54:44.052732,-0.7144505378314336,1.2966716069933515,1.1316384225011824,-249.04752681320406,68.85270666974768,23.581688700929973,0.1153897537785156,0.9916358177437387,-0.11174366470958004,-0.9467341578221894,-1.0891739519422103,1.7361127543056667,-0.9780839543237415,-0.0019403327528638328,0.3030189510655682,6.808343253468434,19.669185845791255,-2.744673469848307,-0.8597470659289038,-1.262288586011707,1.017839895172655,251.95727339328013,122.98863427418235,24.871119312451402,-0.05101717474371287,-0.996092946747506,-0.15331647150622374,-0.33531171371761276,1.4325070346670168,2.2252116969598807
2019-08-03 06:54:44.062732,-0.7270058052938162,1.237243619937384,1.123306131319455,-253.14996798036358,63.66984365360193,10.836830787913458,0.11687698888279473,0.9907631197786297,-0.11037976224456447,-1.160904616679102,-0.9289543095821515,2.09498125171365,-0.9795041401282496,-0.013430116189950731,0.293466899994581,4.681354244244694,21.240224257412407,-2.21882672638366,-0.8828734927076902,-1.2526808332062733,1.002612611199473,253.6432121340643,123.06551499502912,31.82452066900794,-0.0543454542885279,-0.9963816021467424,-0.15480838190088977,-0.35801026869236047,1.593848039285409,2.3434741332988227
2019-08-03 06:54:44.072732,-0.7418205124554066,1.1803895682382062,1.107473476497705,-256.77440035763397,60.97489947820128,0.4730780868453494,0.11830729901131526,0.9903880084428516,-0.10899649630255275,-1.3009140142677964,-0.7698299069590345,2.3816641809351062,-0.9827520932475051,-0.023518651221707938,0.28194556641539836,3.123481000875672,22.469935600649023,-1.6841756484906822,-0.9039938271161053,-1.2044183856562871,0.9753255948102185,255.26262959629307,122.17825249185297,40.18285422293497,-0.05719830318258199,-0.9965575022329501,-0.1559626445622165,-0.37861229325531465,1.7144712436405698,2.3589573192646114
2019-08-03 06:54:44.082732,-0.7472832455178973,1.1482626151546846,1.0930250049161192,-258.45881096851593,59.71461133253429,-5.076351973816527,0.12013575534216006,0.9901636209597422,-0.10754200218013546,-1.3910361381672882,-0.5944974195174997,2.562730929182671,-0.9875007613703133,-0.02790704966003453,0.2687507945307809,2.8062545076350984,23.296162593247516,-1.0925872242116064,-0.9307881474832924,-1.100119951881139,0.9304811382081993,256.4552808026381,117.94217427843452,55.26153099465433,-0.05926512701606295,-0.9964533883461368,-0.1565027149725385,-0.39393279702508655,1.7903150755697443,2.279327906796866
2019-08-03 06:54:44.092732,-0.7490007562998611,1.0900082495090977,1.0541683704301326,-261.3077085914765,56.793520921114194,-16.63053092612462,0.12255927582708023,0.9898589344625088,-0.10600713309213915,-1.4463832758646775,-0.395071197036052,2.6206929414164284,-0.9956294713506477,-0.029007031096566126,0.2561887004171175,2.98915011579966,23.921923778175255,-0.3826173970357162,-0.9341601253522632,-1.0376875886065482,0.8922826307263777,256.5417790315382,114.07178814532679,63.9977256068228,-0.0611673302164599,-0.996410193982548,-0.15701333971960454,-0.4080508623853231,1.8363512914003153,2.1207262752893574
2019-08-03 06:54:44.102732,-0.7513610317634819,1.0607024062440995,1.0314046415368618,-262.6716275204978,54.3324393416419,-24.24965371507529,0.12522303242416571,0.9895427349777131,-0.1045160704254498,-1.4600563136537401,-0.18878044843261765,2.569810750754363,-1.0079838508398098,-0.027455151013264505,0.24635254411497257,3.2237767064239167,24.46826813888876,0.48072049978464315,-0.9283927357822781,-1.0383552802188034,0.8624630768705485,255.2609972034024,110.04368062750673,71.98554971546149,-0.06267575398730897,-0.9963050649792484,-0.15729323164259465,-0.41841621456395917,1.8501814013312765,1.891559488852594
2019-08-03 06:54:44.112732,-0.7551056703804337,1.0550486358760804,0.9955369482356098,-263.2391760040669,51.95411873670458,-30.357578431739277,0.12795390089210545,0.989259367714956,-0.1031671741926614,-1.434826851022345,0.01034046938231797,2.4384040645035006,-1.0250655959743833,-0.024146694138373836,0.24103320669670508,3.0919776254054225,25.032049030136267,1.501833481647428,-0.916203109953271,-1.071629022190993,0.8136156198347864,251.85902324799508,105.47811830988309,85.81287568260282,-0.06380822985249096,-0.9961498238901983,-0.1573693555458496,-0.42440364091418636,1.8344509646515625,1.6024802459783392
2019-08-03 06:54:44.122732,-0.7614895832192408,1.0610941469316968,0.9800380446281007,-262.37501429857497,48.43551189588511,-40.0393711937134,0.12997450663803994,0.9889412594023149,-0.10197992602491128,-1.351606512229465,0.1965282201351472,2.2228238866370718,-1.0433939963704562,-0.021095154230246337,0.23938053677198623,2.4915252798585805,25.304635139785432,2.5457200379297844,-0.898277559100004,-1.076290572174607,0.7650131306652853,249.7378385029685,103.95961527873649,94.07506488464004,-0.06458258933588662,-0.9959562932693562,-0.15726867623371008,-0.42538792878919623,1.7918055406501072,1.2641412451583556
2019-08-03 06:54:44.132732,-0.7356553803339858,1.0478927148403494,0.9426960229670507,-261.40520087772734,43.318674306796865,-51.28218141367293,0.1310337511556584,0.9886183129552084,-0.10104250723352712,-1.2103460204539738,0.3568157640519083,1.9472645877716757,-1.058112903794885,-0.021286836758554764,0.23965504050232236,1.333714887143695,24.839835118970427,3.412823916060311,-0.87722783936268,-1.0398810087503993,0.713806999477197,248.41957747087494,104.6840259612221,101.44045250968772,-0.06501666396137672,-0.995736295670682,-0.15701815851051687,-0.4207438655421807,1.7248906886158442,0.8871951848844061
2019-08-03 06:54:44.142732,-0.7192745153211989,1.0297599012679945,0.9216015757208953,-261.34240560568713,42.345391279102564,-55.31057793719754,0.1307727848297716,0.9883089912511243,-0.10041992533889689,-1.0061832126472772,0.48062674898766516,1.628954748723186,-1.0652782020896727,-0.027030937657860694,0.24019388484475684,-0.418026510846663,23.290642340626487,3.9490532207422038,-0.8524896373450505,-1.0013081074590922,0.6503216457512192,246.89492084440562,106.2375699970591,110.81575504441427,-0.06512828525284207,-0.9955016536481353,-0.1566447671806107,-0.4098462385263313,1.6363519678377074,0.4822947636482528
2019-08-03 06:54:44.152732,-0.7029244870567497,1.0025925159013291,0.9010178483354657,-261.2281601549111,42.331856108929756,-59.64866097055382,0.12944578288848224,0.9880469605885084,-0.10012301804088414,-0.7548056122146858,0.5676177716532692,1.290872368908217,-1.0654986855007273,-0.03500434468148976,0.24094518833935852,-2.219394765199767,20.877798906800976,4.1205661232082385,-0.8302812116770812,-0.9721404713021328,0.587881802722577,245.46075057996728,108.88461857733327,117.3224576798091,-0.0649352847341634,-0.9952641897556745,-0.15617546704833227,-0.3920698350948395,1.5288349376046302,0.06009267994165954
2019-08-03 06:54:44.162732,-0.6847063530739969,0.9852313604987831,0.8770945404517005,-261.36315478076597,43.97306443254768,-68.74738664513242,0.127615406906989,0.9879059587719964,-0.10013622429359526,-0.48056916623947427,0.6217466273120005,0.9602023379374038,-1.0610675838497512,-0.03951402235266923,0.24222124821017457,-3.2327315219777755,18.019609535645092,3.947179259277855,-0.7967625454399001,-0.9097065136915643,0.4549352727239402,239.14540052636318,118.47702011092932,132.69686802497765,-0.06445549392922154,-0.9950357265472602,-0.15563722291802234,-0.36678944260089724,1.4049851572055467,-0.36875836774361237
2019-08-03 06:54:44.172732,-0.6489043460828782,0.9649473818504865,0.8407875778406418,-260.02690919941284,48.15163588890659,-79.50905035707079,0.12561333340666292,0.9879762798749273,-0.10036492710280974,-0.20266654645373466,0.6569063666739839,0.651045838085168,-1.0540786082059743,-0.03543998145971557,0.244476206753465,-2.703530041309225,15.081125750817982,3.4535527987098917,-0.7997519588571422,-0.8655691592604421,0.39848715415713964,234.53035047639335,125.140824387037,140.29154158522965,-0.06370674436189722,-0.9948280865768511,-0.1550569995940217,-0.3333798483976963,1.267448185929391,-0.7936056809157994
2019-08-03 06:54:44.182732,-0.6194399636541267,0.9347778954085603,0.7885326666353861,-258.77773204363035,51.47995416203324,-85.78204853480563,0.12458433507527837,0.9883145905391589,-0.10100115239796884,0.04309309741644862,0.6502653111936463,0.4254690792831106,-1.0464573217016002,-0.025879899645998843,0.24658498356541517,-1.2678551004995389,12.228759879806598,2.884206582058297,-0.8013874546373505,-0.828973121101628,0.37349608183315197,231.1173180550228,129.2556050909486,145.1169879625119,-0.0627068675560712,-0.9946530923984066,-0.15446176188067096,-0.2912158398384279,1.1188695830650957,-1.2037965610831387
2019-08-03 06:54:44.192732,-0.5956158742917004,0.8915688062074612,0.7758166893220177,-258.1875475574646,57.71029677921461,-92.45917195811906,0.12483230428728659,0.9890010025463616,-0.10195124888545606,0.2388414692533321,0.6154506296023218,0.2962092008967252,-1.0403949716421401,-0.016391971296647875,0.24718641921655293,-0.016944415219713793,9.58697639849115,2.5697707429667966,-0.8148241535246238,-0.7258008846316937,0.3642535836566345,217.96524792567743,140.65123465330166,160.82812844567437,-0.06147369503562429,-0.9945225665658861,-0.15387847458231096,-0.23967220427628408,0.9618949079015958,-1.5886783097538686
2019-08-03 06:54:44.202732,-0.5522559890944592,0.8266896003536206,0.7469832942523759,-256.77544394182837,66.93412444872826,-103.02080525785549,0.12611517899225433,0.9899437501187455,-0.10308110244140611,0.3894994207101294,0.5704962425721725,0.24686077175616253,-1.0380731293745125,-0.012515560394250506,0.24493787699439984,-0.03974396496021587,7.279268047238571,2.839244729281655,-0.814538724471575,-0.6822715243065286,0.376051442197355,209.8561810943889,144.11734767204655,168.8447396929346,-0.060025058324437254,-0.9944483316332491,-0.15333410250328242,-0.17812372906445614,0.7991697197278244,-1.9375982284362252
2019-08-03 06:54:44.212732,-0.5138140143039926,0.7398413372846023,0.6718299699078003,-253.91781080671328,83.29586846656026,-116.60800540353132,0.12724412122937914,0.9911314428450334,-0.1039948103639431,0.521123959668837,0.5618672504893836,0.2102065350485167,-1.040465429719975,-0.017570890414651878,0.23922229107902301,-1.9545417534705245,5.347753725406134,3.8582260735834293,-0.8055331913034891,-0.6552383576158564,0.36949029492873414,201.71295268969612,147.41802088554434,176.8877885267764,-0.058378788946390855,-0.9944422101544549,-0.152855610447926,-0.10594520155613624,0.6333395778327153,-2.2399036186384467
2019-08-03 06:54:44.222732,-0.4773826042053734,0.8143173812533618,0.7242121252456353,-256.88576508595594,65.24662937757157,-103.2010065315529,0.1272898759716248,0.9924455055231445,-0.10439957914782347,0.6580187577262346,0.6254675792660602,0.12971854784949824,-1.0450163438422697,-0.02646036278070785,0.23264947294189126,-4.640054900855404,3.5699816596296077,5.281412448995033,-0.7803740895711623,-0.6173396201294037,0.33773549342545184,193.0523366707959,150.8576857574664,185.42882812905992,-0.05655271842536587,-0.9945160246834627,-0.15246996322058254,-0.022511409104515545,0.4670500415052022,-2.4849417818687702
2019-08-03 06:54:44.232732,-0.4709686142925418,0.7600146246988484,0.7184526396276951,-255.60488964252323,78.29173126733467,-111.42192466711178,0.12613250793788194,0.9936899596490748,-0.10429676862418173,0.8090057033110445,0.757481489907847,-0.00033302059930240095,-1.0482948760889788,-0.03314967212815158,0.22821044315058128,-6.751326101056145,1.651133003279855,6.667931217566414,-0.7725882724371902,-0.5447556191072134,0.29866557491049883,178.8041061587422,152.00776317994706,197.4930432203549,-0.05468267452920629,-0.9946916845279792,-0.152185180173323,0.07029608913959612,0.3046933377059204,-2.6635533768436677
2019-08-03 06:54:44.242732,-0.48607504203390456,0.5913405125006188,0.6076892051614894,-246.61399534869864,121.97611498140421,-141.74312504153835,0.12471584485054237,0.9945288345657821,-0.1041170808263214,0.9660328920830397,0.9093979021558964,-0.12121140003878311,-1.0478746066272613,-0.033461102191426804,0.22790928437445193,-7.353312373544905,-0.5944906570105196,7.690075827366959,-0.7567238596932215,-0.522442504862709,0.2919370815665029,179.1595634714579,154.06341242122136,197.68379637058257,-0.052389425645851785,-0.9949469813026046,-0.15209185635731526,0.1815328327448165,0.14303393259067132,-2.76011795004987
2019-08-03 06:54:44.252732,-0.4975394634875061,0.516888649874268,0.5387148400264985,-240.3876632487677,141.50272937190388,-157.37235636286113,0.12378831627464848,0.9946373365928706,-0.1042388774840952,1.124537833561653,1.034467075500678,-0.18263733821003583,-1.0443495329492347,-0.02943409639508657,0.23081431441378655,-6.850562091188362,-3.0513190144097515,8.379198000396764,-0.7680353116474371,-0.27997658305318246,0.22955312790452614,141.51548125049928,154.98738013455068,227.29035507101793,-0.05000922690160314,-0.9953101794397976,-0.1521509602883619,0.3044403912257064,-0.010991694760426647,-2.7750097303862975
2019-08-03 06:54:44.262732,-0.5084108622143667,0.5021893212369649,0.5336929461917104,-237.72490323680734,143.13021601870219,-160.45015946330682,0.12393860041643467,0.9938622520295399,-0.10498500046545925,1.2786579005899803,1.0948245240138654,-0.1449527237588933,-1.0389198256377663,-0.022396446142057564,0.23705250426422836,-5.515564985005982,-5.554103194182177,8.761016380317082,-0.7643935594247393,-0.42541097432447256,0.23814215783207504,162.95543916942455,160.54069146245064,211.8528732192823,-0.047493691226326844,-0.9956780352854118,-0.15236324154584974,0.4395065176861665,-0.15112769933156622,-2.7414117769123485
2019-08-03 06:54:44.272732,-0.4962401268906528,0.4324733332123552,0.5054581168954265,-229.10973691203068,142.83465801411535,-171.4251245597602,0.12476482925583518,0.9924342614052488,-0.10596687964341507,1.4242183739966323,1.114470172432533,-0.047375199216857476,-1.0322675542590698,-0.01734243696978901,0.24235064299440404,-4.39665685538137,-7.913741130840885,8.997732775908986,-0.7917138332502781,-0.456547600741117,0.23606103948243404,172.78240867336478,175.70969996960596,210.02996880676898,-0.04560295235876412,-0.9962323961506305,-0.15256445659831805,0.5689127832430291,-0.27622375864701115,-2.635396335174067
2019-08-03 06:54:44.282732,-0.5173771109865098,0.47168988331623296,0.5544757074226747,-237.5538885066083,149.65040000560674,-161.46177556342843,0.12572374478322534,0.9907401381213611,-0.10668516257506445,1.5536553064932341,1.1278242523436972,0.05999303652971005,-1.0255157288519698,-0.01614590955162641,0.24618038454698943,-3.8818738284978687,-9.961431505018094,9.135392205294933,-0.7153364291568165,-0.22048538613817162,0.23463708695220908,110.81129886765162,123.50204307477517,236.66848287379852,-0.044481636677447874,-0.9969351436092551,-0.15273916089531692,0.6891532660425641,-0.37998695945201266,-2.48000607786948
2019-08-03 06:54:44.292732,-0.5679994599969643,0.6164460920780843,0.6713318246527107,-259.78345623312487,157.88192935607194,-132.67749841916032,0.1263793742622299,0.9890847253761721,-0.10671205767350747,1.6599069779353317,1.1623958276525226,0.13647741655142087,-1.0196684678057069,-0.0216322200608052,0.246867057676889,-4.562271065760788,-11.52093246072822,9.257828923758822,-0.6961508842623103,-0.20317172186801402,0.22230090071087166,111.43084648904129,120.1763466976508,235.7724803896252,-0.04443529352203701,-0.9978055901473631,-0.1528320797095601,0.7929625996749696,-0.45750927542119135,-2.2859612033771524
2019-08-03 06:54:44.302732,-0.508154709844512,0.40763368656433313,0.5383889637541763,-230.50050044838375,148.39285705442978,-170.25442122758483,0.12652853333243086,0.9879999015277208,-0.10657148640997373,1.7487400581015118,1.2006928021752608,0.19190761685262103,-1.0154641813647813,-0.03480809130718364,0.24397205470921624,-6.66605736503813,-12.482265748360577,9.40817754156941,-0.6663331960734081,-0.15978269741762455,0.22289392538539365,101.51551476281465,107.05147544034558,239.0719129363486,-0.04561065936215459,-0.9988258976088695,-0.15279308506221045,0.8760421629995704,-0.5057387129027412,-2.0686280724593393
2019-08-03 06:54:44.312732,-0.4459358849463641,0.25803565384905136,0.48315161439148974,-206.78671200656018,138.3875932502853,-197.8509132189617,0.12598355455598514,0.9880314337194062,-0.10692753728304756,1.8286963065249717,1.219503565559599,0.24349768229341168,-1.0132128817401724,-0.04982194262914191,0.2434720427748078,-8.975159516146197,-12.94249725822247,9.396690259242675,-0.7214377534117354,-0.18091941178512405,0.20868071555449313,109.21200184973186,120.3449335703169,239.19027450371402,-0.04762824855717204,-0.9998671799926379,-0.152667430626594,0.9458096016107939,-0.5236667853611799,-1.8545101227729668
2019-08-03 06:54:44.322732,-0.4297776848647724,0.1933016725278007,0.4272428409088406,-191.01612842387243,129.81526617836002,-214.8273049731975,0.12458448778267711,0.9895520260121962,-0.1083276670087752,1.9076233541914336,1.2035152506889457,0.30734901460653485,-1.013334815901512,-0.06037747420124126,0.25171832505985897,-10.189749728062148,-13.01146420692243,9.048481199682499,-0.49066335924912674,-0.07802015316744611,0.26551629595337994,69.51490692312846,51.555904164102785,243.5808324743606,-0.04999448063701065,-1.0008041963055443,-0.15249607969268847,1.0122627947062595,-0.5134783054261576,-1.673980172627883
2019-08-03 06:54:44.332732,-0.41256505799821663,0.1488119588181244,0.3905051143411419,-179.72813663597216,123.35189968230696,-225.4568318074765,0.12282392346466778,0.9918039002425201,-0.11007860467182512,1.9734305232438232,1.1623044045145523,0.37932800763114355,-1.0157856004269865,-0.06246235776521162,0.27205214611469936,-9.487218565589833,-12.797994716301586,8.283309284289325,-0.536341542421931,-0.08433897129557297,0.252195608376815,77.75663422601748,66.05914911671483,242.17030133194868,-0.05193139261539684,-1.0012967246114843,-0.1522924481042918,1.0869204982651914,-0.47609586851681945,-1.5672233435070404
2019-08-03 06:54:44.342732,-0.39072728462677436,0.10151926064772947,0.38792988666235356,-168.959703946453,112.65154617564451,-233.65051015067903,0.12136033054388533,0.9937489749959489,-0.11130093666238036,2.0113365064452515,1.1087311161070452,0.4566783266758354,-1.019078092086966,-0.05926145561454041,0.297598250501985,-7.695669673725954,-12.34289690351626,7.322049550049142,-0.48870130452389654,-0.03485793968644007,0.25887084227559487,70.68839673378072,53.600556141422835,242.46731152050234,-0.05314401282759436,-1.0012932785563915,-0.15208489530114735,1.1758164724526166,-0.4138278243794609,-1.5510776347149458
2019-08-03 06:54:44.352732,-0.3823969109163801,0.07081931466157637,0.3767174608474193,-163.50284450353948,106.73556907651295,-237.04238301637932,0.12084936076932565,0.994350536751628,-0.11111346269038717,2.006555046535294,1.0558686505918475,0.536414936831617,-1.0213630911399674,-0.05486106665396303,0.32009556974314424,-5.832445825227536,-11.699582357908671,6.418737750756917,-0.4769555881907981,-0.01268305076967433,0.26484645778494226,68.6122280065525,51.19985196868187,242.4071661255397,-0.053510842523166034,-1.0008438257852414,-0.15190318753980675,1.281715524166294,-0.33114574305092004,-1.607711544313295
2019-08-03 06:54:44.362732,-0.3917789587736079,0.05804379098817618,0.37860516911205583,-165.20707864588672,110.88608438670899,-236.55845199934365,0.1214830577531255,0.9932070628797025,-0.10927003379053045,1.9579506673769858,1.0147029515599353,0.61771554903382,-1.0213174660249977,-0.05246365494637727,0.33355714364551103,-4.6535116270965124,-10.92340659089247,5.763436186171198,-0.4403436327394303,0.038872112681858556,0.2676530089172294,63.65623012594482,45.822406320361495,242.41035981393665,-0.05344158581963197,-1.0000552258384865,-0.15169326172263056,1.394818684712422,-0.22676900970216693,-1.7432973756806667
2019-08-03 06:54:44.372732,-0.39468832961757894,0.04650929933320009,0.38142442385792635,-165.63000761604272,112.04408703843178,-236.75785476421032,0.12249732148967493,0.9912310665525347,-0.1068445964436616,1.8927050190563819,0.9915207205078951,0.704679366324175,-1.0192148349849548,-0.051248354789887866,0.34012889751601094,-3.8462159529947533,-10.112985795106402,5.320923160377003,-0.4013373501949224,0.0808076798060455,0.2710400159374281,60.02179364920948,40.969182010027964,242.43300594686448,-0.05292181965644539,-0.9990018721615871,-0.15147270705949328,1.5155770815007579,-0.1045186528369193,-1.9400968491379613
2019-08-03 06:54:44.382732,-0.3577891226529616,0.014874651561277794,0.35811119060726854,-152.96487427363098,90.89654828282148,-243.15938024132888,0.1232228135378715,0.9894116309525469,-0.10494820954211834,1.8387977624742553,0.9829316491322386,0.8025880271911516,-1.0155474778665712,-0.05092311577660392,0.34232309768642255,-3.2060921384348156,-9.359540103881587,5.031024705133817,-0.37822098406269045,0.10097339039922165,0.26739597016361494,58.29911795438478,38.791562991596784,242.3051766171688,-0.05204961848304229,-0.9977667696614563,-0.15124010736142512,1.6417230576981086,0.03313748318358413,-2.18671384178199
2019-08-03 06:54:44.392732,-0.3243064066588798,-0.006362116372258531,0.33522829540060084,-141.9626717180421,72.50666897382946,-248.2146477291047,0.12189972946865996,0.9890698406805843,-0.10512288317455165,1.8343393264063568,1.0408767285940577,0.9051637148330722,-1.011076458543136,-0.04964117424796916,0.34396086781660967,-2.0520089570533635,-8.726437500211933,4.84334982212929,-0.3388355610079781,0.12979675123518164,0.2500743485365357,54.95471241852623,35.98317826496615,242.03835336395616,-0.050923056748858705,-0.9964329232450089,-0.15099404643945633,1.770988956471282,0.18373155399810448,-2.471752230709567
2019-08-03 06:54:44.402732,-0.2850399574908904,-0.004779024419690647,0.32895219198025094,-138.59051901086895,65.37810161807374,-248.8700870514279,0.11955314343506299,0.9901129198137237,-0.10717905101418448,1.8753986516559205,1.106973746159491,1.0186914490447343,-1.006295956983595,-0.04699284556949576,0.3475395404066011,-0.1526755116439296,-8.297347301109102,4.7007904731488965,-0.3047728068189511,0.13996862456960252,0.24858889640007195,51.21487016347401,33.74021178928284,241.73692079502007,-0.049640208903330624,-0.9950833378191578,-0.15073310810461707,1.9011071209870838,0.3447957152454034,-2.7838158930175045
2019-08-03 06:54:44.412732,-0.23863997939761655,-0.009143987346785376,0.32264091280786744,-133.2217420113224,54.87275447582288,-250.74601245996192,0.11831198349373348,0.9914935967030238,-0.10984937675586395,1.931153542318,1.1030729146129978,1.1410032708192555,-1.0014538835214901,-0.04284866222111687,0.3539775373718425,2.4926200473181552,-8.087355062163505,4.562301840697494,-0.2829002985163882,0.14764233093440718,0.23866206946215587,48.910366692095195,32.66225872134412,241.38232446001004,-0.04829914939589408,-0.9938010182908177,-0.15045587616793768,2.029809894412323,0.5138621225642419,-3.111508705802616
2019-08-03 06:54:44.422732,-0.19877716928370298,-0.016269112635182534,0.3208779452101659,-130.73945305135746,52.06416502792388,-251.84085902527107,0.12176420672671352,0.9920865738920602,-0.11142693546577062,1.9617719761955634,0.8435584259278902,1.305351173804998,-0.9962052034840049,-0.038477943707699434,0.3612002030966197,5.414127182564292,-8.077820396783101,4.443381660884248,-0.29511617837454446,0.128967469644056,0.2485494896962962,48.822904066059195,34.28206273376297,241.98696218583305,-0.04699795267598509,-0.9926689695669023,-0.15016093444044837,2.1548296199138064,0.6884629315933817,-3.4434345461617153
2019-08-03 06:54:44.432732,-0.11514229136177803,-0.030297714392350943,0.306159601446296,-126.55018337953209,48.14472115280486,-253.68112710321947,0.1290791562509285,0.9915932045366256,-0.11176667995948406,1.9621738148115584,0.41496619415100167,1.4693722312311328,-0.9904587448873471,-0.034515071457571427,0.3682413059264068,8.289026072233359,-8.241208903249975,4.326554642167058,-0.2007625322348291,0.19304867947601362,0.21520810007116603,43.84258891287176,27.040199978799563,239.8557696107367,-0.04583469319303968,-0.9917701965543255,-0.1498468667331793,2.2738986406583415,0.8661302979715838,-3.7681972911916137
2019-08-03 06:54:44.442732,-0.05191151533754528,-0.04538327080263882,0.28316290526917204,-125.05998474794899,48.36565389140469,-253.98352605372654,0.13664709956941729,0.990440877872785,-0.11177190275709821,1.9520782996749646,0.0567344820704819,1.5543964310209102,-0.9839094902413006,-0.02951089568510423,0.3741745943887294,11.249681385148785,-8.54180868361086,4.185001469522608,-0.1734722946483853,0.2142472294114046,0.21467354118106927,42.347003405237146,25.090572229035704,238.86663157077652,-0.044473518661332756,-0.990844699937555,-0.14938777679470172,2.390244338346671,1.0545386165755275,-4.097710935049924
2019-08-03 06:54:44.452732,0.011242201589080323,-0.07279260973302763,0.2596141989239323,-123.81792924568387,49.068437424441385,-254.03233111961364,0.14093463163211487,0.9887725929032161,-0.11243411324242143,1.9509319580973377,0.011375099237260305,1.486548274969083,-0.9768290300941714,-0.030020162344066056,0.37707159583376615,12.671148824827497,-8.979344571819906,4.050603438128951,-0.1531362304200768,0.22339675359222272,0.21588980077925765,42.17464103055898,24.59751265139451,237.73392370756522,-0.04403307755879945,-0.9907822134390587,-0.14907501933149309,2.488674999711847,1.227366002446081,-4.365755122662804
2019-08-03 06:54:44.462732,0.125025171981062,-0.1572799710130843,0.2426609808751983,-120.99034838040762,50.5888307508155,-252.84423010405487,0.14198162359757244,0.987197718688972,-0.11362486423014576,1.958754149437663,0.23169861330239258,1.2790284010814659,-0.9689238427530623,-0.03440798997861002,0.37610165638381643,12.735676270257917,-9.515880535200122,3.8966861599201943,-0.08233989169297111,0.2611372578231325,0.20563218723344684,40.04636017730206,24.085059467089085,236.28165201723613,-0.044090646246531036,-0.9912540689138993,-0.14875777740714735,2.573518103301751,1.394317308543092,-4.588910491765821
2019-08-03 06:54:44.472732,0.24014028121380596,-0.2686364889030049,0.2345900185723707,-116.73895330399431,56.50375739892513,-248.99139103513824,0.14077680927410383,0.9860307637175052,-0.11512054497566858,1.9705015135269268,0.5937043824352827,0.9736300500667998,-0.9603607656193447,-0.04172410918310174,0.37133635279820243,11.591731030713007,-10.0655639753578,3.7361857451198563,-0.1543004657274414,0.22536039877111988,0.16206329007453532,44.65563674023633,21.704702590402874,237.42852107592452,-0.04474005079406038,-0.9923291360675683,-0.14843070246332504,2.6422264874108845,1.5532180839895011,-4.755361673869054
2019-08-03 06:54:44.482732,0.28346779886507417,-0.32926875488060314,0.2374238242528736,-113.34730191340917,62.939761948804396,-243.20870576848466,0.13889738888270597,0.9867690394282107,-0.11607752352554632,1.980033259298259,0.9372617615431305,0.6124816635703001,-0.9510515081736064,-0.0458259560098591,0.3644619556017195,10.66364230627852,-10.594895319561966,3.5192593550776254,-0.09418596231055028,0.26531113348010427,0.17359863807095283,41.92451131693313,23.033114128057782,236.41253195585915,-0.04570492230308862,-0.9938191228701541,-0.14804753158438955,2.69543329593734,1.7042105897125803,-4.86922862034458
2019-08-03 06:54:44.492732,0.29690594257878716,-0.3575530776557724,0.24065242871141163,-112.34466616187908,65.39724920636726,-240.73402440853926,0.13719933684943925,0.9897669130065175,-0.11632372319999436,1.9839663780653776,1.150605851806955,0.23498162431820918,-0.9410629003183996,-0.04249881982908553,0.3565303399222038,10.918921269402231,-11.022146428610755,3.242792077014821,0.041066044269395245,0.3416811357908662,0.21307056521055381,34.6502637177982,26.01823131230053,234.21137886534666,-0.04658800455015156,-0.9954281364766456,-0.14753905074331977,2.7342478759893556,1.8489872774894383,-4.938808690179744
2019-08-03 06:54:44.502732,0.2964496764790855,-0.3651570357758826,0.24128563167306333,-112.86308126752643,65.12445657498903,-241.0524142634229,0.13593207098114066,0.9941300634911276,-0.11602190891731011,1.9776467560461914,1.2130769295911612,-0.13176123630067044,-0.9305553643182891,-0.028255312065925152,0.3487354123806328,13.186503634754985,-11.279456089422698,2.9039785270869483,0.0524369700255074,0.3569651314618224,0.21485156980943526,33.39953644524381,25.411215231807866,233.7414361419127,-0.0470082733785429,-0.9970787569024422,-0.1469085346931141,2.7534879810300317,1.97697382080948,-4.955471308547248
2019-08-03 06:54:44.512732,0.29200568496403645,-0.35890824143944233,0.23940249858852658,-113.61367902194516,63.77778749331524,-242.22881173046403,0.1343065942268337,0.9977147716386223,-0.11606893630082225,1.958855942207844,1.2001332610055198,-0.4887434555180118,-0.9203482593602549,-0.007136499107423284,0.3413078824037828,16.598853478408067,-11.27767381937563,2.5642351712278475,0.11702553933328742,0.3822850996766916,0.22400128099745287,28.707939775417792,25.422649873809654,232.180772122561,-0.0465622955892304,-0.9979346006646461,-0.14590218928067314,2.7694537100315095,2.121015533554768,-4.967995903373778
2019-08-03 06:54:44.522732,0.2914714721115971,-0.3446858232865109,0.23487990578715418,-113.31383309219467,63.22221840848587,-242.32173784191775,0.13210425731429767,0.9988062589458692,-0.11697783230853492,1.9232462273780053,1.148548413043184,-0.8217493810478238,-0.9115457830084698,0.01423561845853755,0.33446639825624297,19.747424167840897,-10.933365770987656,2.307705327900363,0.19789667163155017,0.41948388802882053,0.20590366626976198,22.72338425975529,26.11931435383649,230.05019807399162,-0.044884870705463556,-0.997912621826686,-0.14452172884813544,2.777284462521138,2.271217166038546,-4.968284627782196
2019-08-03 06:54:44.532732,0.3032797624369065,-0.32846039183130593,0.22747410650516575,-110.67737686065213,65.27266491706001,-239.38213955726852,0.12928016279171012,0.9973949329191019,-0.11879745907357814,1.8770154200309737,1.0886157542567834,-1.126274259108954,-0.9046463848089189,0.031074665322944013,0.32794492307385925,21.62839327207686,-10.265537965301991,2.192338480218206,0.25185865973817106,0.44758925449810083,0.2085217909162259,18.03699157306857,27.54649955505017,228.34426634234208,-0.042103408694435206,-0.9970259009247779,-0.14283386361285463,2.770791585444038,2.4181707060970776,-4.9278708704167835
2019-08-03 06:54:44.542732,0.3324011470027704,-0.3163400929625475,0.21615318948752923,-104.99926759231393,70.9510010870547,-232.21724225350295,0.1267485195672394,0.9946543953969571,-0.12064597987347539,1.8104064985480786,0.9576325731753652,-1.3619574448748506,-0.9030796769063072,0.029863331699731727,0.32394967269650576,19.329323710257807,-8.80530112239231,2.4011172908792355,0.10574638171139279,0.4109213884945017,0.20474911152656367,32.020670699587285,20.807058196824062,233.16874196053348,-0.03838896939205691,-0.9959933793666451,-0.14108221330274623,2.733916851363715,2.526413687126613,-4.810281561609731
2019-08-03 06:54:44.552732,0.3617682661059434,-0.31776858343738984,0.19779801329260216,-99.16952807624799,76.26725712281349,-224.45479767827882,0.1249008074725871,0.9916122239400237,-0.12199674063817131,1.7249493643710514,0.7465560238153607,-1.5119208991604303,-0.9055826085188291,0.013111605222441175,0.32127406108696277,13.466808563613544,-6.843918175201457,2.8803491283335445,-0.05488920481181572,0.3670550526688633,0.19699256357090555,47.42134161906631,13.574852943840183,238.53717085094456,-0.034093187802019344,-0.9953791372890185,-0.13950220745192876,2.65160133256855,2.5656751604127517,-4.567719665919368
2019-08-03 06:54:44.562732,0.37042593101953203,-0.35491213801735255,0.19435735062955847,-93.32703030009884,77.98209863778482,-218.29114293430638,0.12425377292826435,0.9893552874513462,-0.12223311031209845,1.6195767842684088,0.43298258497200565,-1.5538767713573436,-0.9097878123444503,-0.009999596320516235,0.3187145267819066,6.189159007720277,-4.867457491079087,3.456280059849766,0.15791998796499443,0.4341808157701656,0.21242392753314154,27.33049747397517,22.802020740353715,231.4622554524324,-0.029597592307046453,-0.9957496743210709,-0.13831866129685091,2.5099584539928226,2.5078692626763015,-4.156055983404093
2019-08-03 06:54:44.572732,0.3914746005739636,-0.3738030494821754,0.21520028439583583,-85.77565472058811,77.24469117284454,-212.85379149493147,0.12494277415730687,0.988486835569613,-0.12119241982089352,1.4982563091527688,0.028049511492982727,-1.4858001688507043,-0.9116499582997816,-0.027911774850326938,0.3127781578025042,-0.027391926519032397,-3.4390483923483686,3.993367877789094,0.5239355848104724,0.5149605506830938,0.24305796935211862,-5.117527646125716,34.1113970791899,216.66508124663162,-0.025334705911003987,-0.996890131541997,-0.1375339602542701,2.311884625836534,2.3627451845900125,-3.564890049154455
2019-08-03 06:54:44.582732,0.40110920895558067,-0.35607431815102486,0.23226456592078665,-76.80198616047261,70.7351170661476,-208.76269288495422,0.12632219672736836,0.9885943105213553,-0.11964104170554404,1.375073339722787,-0.38760147611210904,-1.3466900512524422,-0.9103102031357524,-0.03593005043683241,0.3035313460213136,-4.017723096479152,-2.79487676859264,4.378358163308549,0.3793116340106672,0.47693063948879727,0.1395607582539634,8.103415505848513,33.16885302575451,231.3315037315331,-0.021892385879867384,-0.9983009926784601,-0.13706041068853278,2.067906816463823,2.157674217737379,-2.7960044878757597
2019-08-03 06:54:44.592732,0.4225263295657418,-0.3293525020439344,0.23324621057585285,-69.10154957405766,63.02347761807897,-205.92866342048643,0.12772174353186008,0.9892826397253078,-0.11839580334725114,1.2603226078057967,-0.7360517955347011,-1.1748587795012562,-0.9072035984609453,-0.03536244939985639,0.29317923987390077,-5.9155560802527045,-2.7852074245231058,4.587103319135907,0.36575734317514064,0.46323436198117085,0.11099761518056397,8.96202852840598,33.97854840265751,236.01103837106558,-0.019648756446451473,-0.9997154880734678,-0.1368246833622059,1.7951128544152555,1.9137700821515953,-1.917846096520568
2019-08-03 06:54:44.602732,0.4342360588026256,-0.325883548271019,0.23131152984327538,-67.86672872233687,61.873033669482105,-205.53689326874454,0.1283577700795914,0.9901981752499215,-0.1183036681682285,1.1911595048956733,-0.9185833080837197,-1.0340216208336435,-0.9042942779437476,-0.030220269043129796,0.28418333706009824,-6.42297964902586,-3.2109275685608343,4.625517003628062,0.778129961044629,0.5629891150331903,0.3111667734347321,-20.93786230074653,33.26440620231617,195.40786543228964,-0.019968520976507437,-0.9999623376897231,-0.1367080678278691,1.4823741046524452,1.6777571446684678,-0.7138516974558682
2019-08-03 06:54:44.612732,0.46097104348122975,-0.322217139128372,0.23554805136684098,-66.62455013884275,58.77246056147309,-205.34253940035046,0.12813141770237071,0.9910903074390186,-0.11952980393154188,1.1479031365244707,-0.926030032497292,-0.9224353710142663,-0.9032332838438969,-0.022418567597926573,0.2789477903345178,-5.801456740946771,-3.8913104601249024,4.476664727764785,0.8708428074170996,0.5684951261414846,0.24126395094018868,-17.61028144046994,39.746048350689826,207.79799960145837,-0.02288354597087704,-0.9990206505987924,-0.136658810693471,1.1485757510443246,1.4620886599904486,0.7068066349545711
2019-08-03 06:54:44.622732,0.519990937409102,-0.30042088886164353,0.2498040966101001,-60.56436979660754,47.77503264329417,-203.63119701765265,0.12752061431182293,0.9917870178570082,-0.12153478097572867,1.1017787669881998,-0.7953055264891391,-0.8213303271195241,-0.9044180744986544,-0.013376151142957468,0.27753869197770265,-4.4458033846945,-4.662740005641675,4.184380368926349,0.8266967937409816,0.5668596331500241,0.2701013768895247,-19.407226920812604,35.800251039654626,203.85565410750286,-0.02765230859703369,-0.99719699600439,-0.13664054110342205,0.8115448530279818,1.2737673897103952,2.200493992528332
2019-08-03 06:54:44.632732,0.5859924378325589,-0.28338727764054056,0.25023612846625565,-55.35583179166335,38.8935443047601,-201.93032619224874,0.12688973770767814,0.99237556596098,-0.12396794161678311,0.9819304926913301,-0.6155337770536969,-0.6620982301336026,-0.9128485905997272,-0.008196432855281975,0.2881089049497929,-2.7088164122507914,-5.285451174202348,3.6053004902086254,0.8597415270738642,0.5909425207083558,0.4147104339511201,-34.58253072351235,23.24876258220052,165.04734107728515,-0.03362047969608237,-0.9952613384423498,-0.1367272223180251,0.4861167710911616,1.0805770499098881,3.5927999691783135
2019-08-03 06:54:44.642732,0.6351390552876235,-0.27396416743789054,0.24364025358987693,-52.529974867649884,33.90932165448921,-201.0324594941367,0.12669734800249555,0.9926699257214477,-0.12633706172072828,0.7498838751825958,-0.43610034615947696,-0.41454465517908246,-0.928869480686281,-0.008254695907195311,0.3106397421080608,-0.9837553325431191,-5.597512021055643,2.785089369427553,0.7719084736056364,0.6078231627950136,0.2856417916404719,-19.496338129286833,51.48825640470603,202.46526754902328,-0.03992394932378299,-0.993687843666257,-0.1369025011940508,0.19095492405736347,0.8782095177226745,4.714573485897956
2019-08-03 06:54:44.652732,0.6814290666699834,-0.2777307086317524,0.238049425579698,-49.14244344966261,28.315882501360505,-199.83889313738672,0.12727681017534867,0.9926313494217246,-0.12818100921595138,0.38216346856782274,-0.3007827937610307,-0.06002442526269975,-0.9506298483063167,-0.013433842261781069,0.342239599524981,0.47738473979397084,-5.535493843425679,1.835853678844271,0.6712459888937347,0.7209937260823374,0.14805866091750033,-0.11364497980340449,92.56121678964053,248.1685707076731,-0.045775077477007424,-0.9930155600161922,-0.1371807797479724,-0.05862931400044063,0.6547117172325196,5.41134530516095
2019-08-03 06:54:44.662732,0.7716504218359309,-0.31574757215456817,0.22342356830173377,-41.283267494863985,17.79264884141275,-196.16116244575366,0.12881862061018362,0.9921434146471463,-0.12895856512016834,-0.02603621222926225,-0.12561382693061232,0.2924396244132952,-0.9682996432751472,-0.015482964593014474,0.36577085319063934,1.6727945308720324,-5.306329142519772,1.1339056717434992,0.6031286760880036,0.8254066032972686,0.057297097100302785,13.795933095072684,122.71931084804142,280.2128637440556,-0.05090462921031176,-0.993221633626944,-0.13752614621656079,-0.2593265333546101,0.4203672300510284,5.671686667758338
2019-08-03 06:54:44.672732,0.8011235643167303,-0.3289579396072048,0.224811656018782,-37.92216237155204,15.059218328391115,-194.55075039941872,0.13143336385822962,0.9912212575854178,-0.12811023685249787,-0.35698682847376123,0.18329790678312338,0.516870743870276,-0.9753989140210957,-0.010488327103191447,0.3712374929245106,2.558874152793057,-5.040733826477298,0.9369794767319104,0.626724974814108,0.8317861094559292,0.09746357919813067,9.6795658231838,116.08784562650314,269.30604866931856,-0.05526008915226195,-0.994068033061908,-0.13789653197042742,-0.415724782149122,0.19253164767407663,5.55935455406636
2019-08-03 06:54:44.682732,0.8604044675959281,-0.3097049790137384,0.23106477433910122,-31.89330599954351,12.837403383663217,-191.4998427355423,0.13453893969361128,0.989960360294582,-0.12594753846799112,-0.5865803957275931,0.5989863928897411,0.5986060091207086,-0.9749442793684113,-0.0031720943397517062,0.3675003570202781,3.4214604761804086,-4.7379606801010565,1.0989494243235787,0.8044027120553341,0.6442865697524475,0.3508181745555321,-23.730656752095953,45.89268173569464,186.60115805232115,-0.05877875279001964,-0.9953322235192943,-0.1382542152955574,-0.5328262940873986,-0.012378506525134628,5.138767805506045
2019-08-03 06:54:44.692732,0.9730928645553438,-0.2996434082379237,0.22663241327380834,-24.784774706729976,10.672491408612352,-186.22248039256704,0.1368697499037352,0.989277818538822,-0.12324547957299362,-0.7346963682456484,1.0055424968108935,0.590520895184566,-0.9712361760779209,-0.0006600407676217583,0.36720875605081693,4.641954240103288,-4.328634680468214,1.447600428418169,0.9824214140139369,0.3919450965729017,0.6007810250212576,-52.27968007740842,-31.81765919758041,106.2537825122999,-0.061397915610746374,-0.996791670197312,-0.13856147447793582,-0.6156333028728611,-0.17794670917340388,4.474345263498412
2019-08-03 06:54:44.702732,1.0920725702182537,-0.3248835591992724,0.23923306727195884,-19.260973625091058,7.3850253777271435,-177.66345606964876,0.13742620958427662,0.9895828396066793,-0.1207621828056927,-0.8213354817682056,1.3150647594851228,0.5345108157435248,-0.9660028927286651,-0.0028492503688933584,0.3718285994412921,6.171288076865004,-3.8514320762472685,1.8812688640772768,1.1141972283882198,0.4384184737982215,0.6452517690357433,-37.64738333695069,-40.4647377740456,72.61872234129767,-0.06305487310160382,-0.998223838294171,-0.13878058780354774,-0.6691480422089322,-0.2877564368975303,3.630505769464492
2019-08-03 06:54:44.712732,1.21036689015978,-0.3338842984861291,0.264818681565846,-13.329979309282217,2.712407082798757,-164.23529418036966,0.13648978381287094,0.9904331083520893,-0.11871800057970165,-0.8702618531404275,1.5183550629669302,0.44542217258678973,-0.9607239877955734,-0.008928173245352305,0.3804395652198299,7.689973390498419,-3.279651739814376,2.360866427591987,1.1082856057961863,0.4348645971462225,0.6311136137941507,-42.626103068496754,-44.89023139199566,80.25156146395612,-0.06414786259390719,-0.9996471699033667,-0.13888465554945592,-0.7109839535197902,-0.39049980450438376,2.6809850850091292
2019-08-03 06:54:44.722732,1.2819138334683104,-0.331989539171298,0.27536590165402863,-10.136120101372034,-0.2825089717012529,-156.03772871445597,0.13525049299642058,0.9899961303888726,-0.11690419388843852,-0.9042499408781512,1.671001825948026,0.3149256813912873,-0.954090469164976,-0.013141466905473546,0.38666540026060686,9.150077966983265,-2.8273280858492353,2.810706163288976,1.0978123230736547,0.4345811807919691,0.6255932509646939,-49.71773083529229,-54.918054960363435,95.6237945654722,-0.06355915394337908,-1.0002875708358772,-0.13881118611339396,-0.7172781380467982,-0.32073653870672664,1.6688770411975453
2019-08-03 06:54:44.732732,1.3199693504106995,-0.3319296922390893,0.28074368146500234,-9.008589034297843,-1.5561313307264542,-150.8560715656202,0.13466423007001627,0.9871831179926712,-0.11523886116055437,-0.9508998896801053,1.8069747906752007,0.14629045447942968,-0.9475668950899152,-0.014149780215595213,0.3894334934484811,10.285577115264719,-2.499139208979061,3.166103086836179,1.172219938147048,0.4146813079356223,0.6560964590443528,-20.634500460901446,-33.62459756120727,28.481803371200108,-0.06170728205429793,-1.0001740946021838,-0.13853375631877485,-0.7061993717148156,-0.13002581303208016,0.6683276701917535
2019-08-03 06:54:44.742732,1.37466231113031,-0.34387982531907213,0.2982948777357929,-6.51117016633996,-3.1287859438530496,-138.80230536859708,0.1346507008598983,0.9829901718437103,-0.11380876112712442,-1.005183712461121,1.9180167712230012,-0.0470412457575201,-0.941702886051608,-0.00984323213296074,0.38646786724148696,10.903313597521986,-2.3372364816936892,3.3801703826301237,1.131113309805534,0.4265084916833975,0.6443772375394348,-16.890840661883807,-22.896359514762008,21.79256359012216,-0.058550498658640204,-0.99913463708438,-0.13804348299137417,-0.6819811437239232,0.19690076215427735,-0.2549323338854913
2019-08-03 06:54:44.752732,1.4235626896539235,-0.3637344795240853,0.309856334594441,-4.3979149624139025,-3.110678046564634,-119.9319759918453,0.1342834782481787,0.9814951242533382,-0.11307833985317987,-1.0359140269400031,1.9573283242175754,-0.2713243004699045,-0.9373105220713748,-0.0019949076670779183,0.37964306949717874,10.962134797946245,-2.254848684294195,3.479012419380718,1.0818719822872902,0.430767051801799,0.6343404927560202,-9.751183789077912,-6.705299872549953,6.321502036423752,-0.05466910753885935,-0.9975329260454988,-0.13738949415543142,-0.6604127116780596,0.5737536555716963,-1.074898911075425
2019-08-03 06:54:44.762732,1.4677076583120692,-0.37887166376959397,0.31776051203083155,-3.1383914236306736,-2.7066258647513037,-99.43459482070573,0.13291409144591668,0.9852533102840193,-0.11327327020957038,-1.019330806243306,1.8940026379672927,-0.5177060886271677,-0.93501683957955,0.006544279193328947,0.3716464622794337,10.451367470326565,-2.118824359297096,3.5280645228627363,1.048688464736527,0.4352769495478687,0.6281084010866632,-6.803207216923797,0.3466869863302283,0.21372017075929794,-0.051052254868463286,-0.9959410137163697,-0.13666074209262602,-0.6634311696909605,0.8684060584505997,-1.767795708880096
2019-08-03 06:54:44.772732,1.4718470939675865,-0.3804577675828322,0.30947928478667625,-1.8193370102672786,-1.1333314843073854,-77.98696319642497,0.1307931495452672,0.9922282596048293,-0.11405849830447887,-0.9708440416889117,1.743777006893473,-0.7403589956978359,-0.935242386899543,0.013710542489525761,0.36479721553065264,9.471928504498148,-1.8369714023433237,3.570147976982367,0.9949875167267812,0.4522091398557571,0.6251992160361225,-1.9798647859607685,8.209089293027565,-9.982121185514842,-0.04856391863731233,-0.9949057426172206,-0.13595713113027597,-0.7089158887545173,0.9647052532963731,-2.3158968017869888
2019-08-03 06:54:44.782732,1.4778351391820557,-0.3752498274780458,0.29683161056643825,-1.2828978598726852,0.14483266548536408,-68.5647248712097,0.12859794755246423,0.9973969412268354,-0.11486084179734478,-0.9252364831883834,1.5468654636110326,-0.8726540855950629,-0.9392431836824123,0.013983667964477392,0.3628387172757473,7.6090399467392285,-1.1314763355951851,3.7552746208094367,0.9327228635873915,0.4798354509809659,0.6182798776946024,3.8037035873554257,12.683922966684236,-22.85262339549584,-0.04706242768981216,-0.994569138439463,-0.135415673143485,-0.7885893662705529,0.8827416015423466,-2.7035273473132406
2019-08-03 06:54:44.792732,1.470828534178008,-0.3713276833226056,0.30069644364208253,-0.7523267441239408,0.42505852097040825,-64.67765157841787,0.12672447867820527,0.9989136876523855,-0.11536575797822994,-0.9005351137986704,1.3310375684331253,-0.8925504438392436,-0.94651920605702,0.008388071866273451,0.3660971968849417,5.253897110289607,-0.07805469220733452,4.03967571183603,0.9471058604832665,0.47741706559071856,0.6190760859688965,3.6564354889820514,14.321528945530194,-21.2983372645594,-0.045843392782980115,-0.99491979548291,-0.13519545910493724,-0.878496786118147,0.7111074858876346,-2.9361753199102383
2019-08-03 06:54:44.802732,1.4228128882102342,-0.35881596489958134,0.3255556869701029,0.8341489199571195,0.7360999319086388,-48.17886143366194,0.12531359665535488,0.997556330009589,-0.11571713571469869,-0.8986766341828312,1.1213880248564583,-0.8300401896431485,-0.955545650164609,0.000524517600281763,0.37253582198695284,2.8524771866212433,1.1024057558501914,4.318709617963586,0.9610537326817253,0.47299803805814744,0.6227281919471643,3.2919743427092527,16.62479548713972,-19.828009176168464,-0.04426665281909959,-0.9958859300533304,-0.1354255276958018,-0.9556195998540257,0.5332654953343982,-3.021274665965887
2019-08-03 06:54:44.812732,1.369899121291645,-0.3467110026089452,0.3260250283742459,1.25027451331142,0.18087730615532055,-28.92039496587172,0.12449872760003194,0.9950512734155774,-0.11558601844425578,-0.9177036600050267,0.9238709654391917,-0.7005738209246805,-0.9634993776051779,0.0005876037589201064,0.3773256763348314,1.8931460729894327,1.8465476279941484,4.276111048118322,0.7665144456751027,0.5675525810656034,0.5906296384611144,18.048273103338435,8.52431825376234,-59.86546463373471,-0.041296382213417096,-0.9977844288530459,-0.13640006584953723,-0.9899659223499997,0.45931267044272583,-2.976042052945645
2019-08-03 06:54:44.822732,1.3271778928113962,-0.3611116513585893,0.31799683220091735,0.9622397865241367,-1.481668874984169,-12.079196797225197,0.12444859287393771,0.992371544479927,-0.11500999344768206,-0.9596093661876753,0.7601893534644548,-0.5321720160073031,-0.9686492700456178,0.01309711259523129,0.3780803509316968,2.9758307217910867,1.8794343417521504,3.7738906079206243,0.830466687217931,0.5316998890618322,0.6019125895242374,12.233697068660657,10.633648613993216,-44.243446026926506,-0.03747944716616414,-0.9999394405827923,-0.13784071397588138,-0.9882932828004459,0.47194781833742694,-2.8013319621525596
2019-08-03 06:54:44.832732,1.279389088604423,-0.3807317118856936,0.31685657853791194,1.2301802170030365,-3.7658718000692497,0.6695029704350667,0.12530646199169257,0.9907373713200065,-0.11390635112431637,-1.0249782049670093,0.647075114180562,-0.3495584538713358,-0.9713946420676238,0.03313326728712475,0.3759481664790964,5.190318134357615,1.4348964598008416,2.9751752838442727,0.804125020871858,0.5454625980696828,0.5954742309016491,13.958702607415908,8.674557403634893,-49.30764644161671,-0.03406387779302116,-1.0014125732373533,-0.1392417055052111,-0.9762242758603404,0.49362895497976494,-2.4986116788156876
2019-08-03 06:54:44.842732,1.1849726913082836,-0.40941985255004704,0.29300518669706715,2.3481094522487,-5.335836170724214,17.019801744648575,0.1270127617896074,0.990640493423458,-0.11240158298127924,-1.110951113926299,0.5982872192030391,-0.17833588387225643,-0.9744797625791862,0.04591664522260674,0.37600639264188956,6.025946831565102,1.3116655850012238,2.392914123001168,0.7525324251322971,0.6047738055518398,0.567135649218923,19.934546400647815,-4.937388753909515,-78.3533530368099,-0.03242098449847831,-1.0009147158919292,-0.14002270771632336,-0.9809161107168015,0.4136451827247108,-2.0496612597548047
2019-08-03 06:54:44.852732,1.1302543958960045,-0.4278490915116436,0.2734139997724287,3.353010497736012,-7.234902667612475,27.64620034023443,0.12918226939471797,0.9911669478180927,-0.11132764348745437,-1.2074157226667968,0.6249861209801586,-0.04953064996490432,-0.9786670316619045,0.04628629985807656,0.3797486503315792,4.6467831786415745,1.7571512117031103,2.1810788137362676,0.7604214300487954,0.5665983165822409,0.5828440217179568,17.31714587432417,0.3150047186997994,-63.87194532085419,-0.03232907504242148,-0.9990800765505197,-0.14029737832663886,-1.001472288506812,0.28019650101729143,-1.5047523728573209
2019-08-03 06:54:44.862732,1.095336314221742,-0.44719228890909274,0.2614988444302415,4.8800937321378015,-9.592380283372664,38.07231294567946,0.13135894395857953,0.9914361861047168,-0.11155645277145201,-1.301930091465994,0.7347623325908151,0.004721027530313466,-0.9830053394059216,0.03911498392453969,0.38538292720222245,2.043469747263127,2.5070741138740726,2.1591616373338662,0.7616879951350815,0.5424612888021743,0.598224152311808,15.544725535462964,1.3851454904599416,-55.93380386941618,-0.0331881845012238,-0.9969564789870101,-0.14034993443488,-1.0298282555210954,0.16411827715462443,-0.9255217147618231
2019-08-03 06:54:44.872732,1.0978211939123914,-0.4473792661654623,0.2594559436597895,6.175547695008238,-11.402684295886427,42.259392097794404,0.13318819881779045,0.990967646548754,-0.11327381317167096,-1.3838722008001398,0.9179471992230918,-0.028265467876177452,-0.9842536205414796,0.03434837914952711,0.38900791104130794,0.18831404673844077,2.8350123733696657,1.8727322152610495,0.7220321089924826,0.7130920103818733,0.449863910858748,26.465716375283527,-13.05790781022497,-112.96871346732819,-0.034386108672182454,-0.9957804281042413,-0.14056522751732511,-1.0586790721163626,0.1600992467861633,-0.3621156562721131
2019-08-03 06:54:44.882732,1.0837908368293308,-0.46860145718617763,0.2491404899658202,9.870436539745805,-14.81130110746878,53.103921351969376,0.13440047272971134,0.9901450899847791,-0.11497666082244806,-1.4517502662370942,1.1393712465712138,-0.12157999542572653,-0.9811826161276512,0.03765713074797159,0.38858546039456476,0.23664554561485895,2.4079810548922667,1.0998771567205152,0.7507747580761066,0.6540357009930575,0.5051472562499981,22.43648547426159,-8.305817484229951,-91.44707626502826,-0.03575061780855682,-0.9956381037191613,-0.14095058021524381,-1.0862137740238988,0.2614879749894396,0.1617880313591445
2019-08-03 06:54:44.892732,1.053425771484904,-0.4892055015798083,0.24401332019945202,13.308482027763077,-16.95835139741609,63.24033690307162,0.1347638123150496,0.9893596891231724,-0.11499553188845796,-1.5053545525894343,1.3599789423258062,-0.24116882972837497,-0.9755562877068712,0.046872223105352294,0.3850711598949282,1.7096139704367346,1.5326356506551992,0.046094016262092634,0.6387826237807014,0.6667057803916221,0.48435193717745717,24.57067636516243,-6.041267686141187,-108.42583834710061,-0.03713028433418224,-0.996362680460765,-0.1414812889056202,-1.1094839920265618,0.44897737234480606,0.6390594662666497
2019-08-03 06:54:44.902732,1.0157526821588732,-0.5141407427188279,0.23814312027499523,16.953337909862473,-17.42621293210289,72.72646514466547,0.13429017921159606,0.9888168041693172,-0.11270517282930499,-1.5402896553414978,1.5447254559974948,-0.36255725016868406,-0.9721672967919914,0.052374578758931284,0.38234476557021735,2.5909388448011343,1.1588447884337503,-0.6882399186003626,0.6579938906515653,0.6557732082363871,0.4839603983476478,23.725334134952668,-5.43114331048506,-105.41731761992204,-0.038765979980901595,-0.9974844818583768,-0.14196561344959663,-1.1350004781669876,0.6710126492894242,1.064088068833843
2019-08-03 06:54:44.912732,0.9923645888273404,-0.550639557764861,0.2278466940884368,20.13421889839096,-18.609661628195955,81.89665361451486,0.13357605343118176,0.9882079071728622,-0.1097360616771897,-1.535800523613194,1.6583390684325279,-0.48531940490876035,-0.9728179198437181,0.05035764552277245,0.38194634739840866,2.0751729106938135,1.6251539893818432,-0.8484738714404058,0.5887850029629992,0.6761508172412226,0.4577962119370051,23.53827340023175,-2.054338418348935,-114.71953664814606,-0.04051281296490272,-0.9988296831208932,-0.14237574490313118,-1.1599595718759452,0.9076248433094147,1.4298682181546256
2019-08-03 06:54:44.922732,0.9536134718197149,-0.5701417723137273,0.2290959226000596,24.045680511746863,-21.63906591617012,91.27813918215246,0.13331445387370142,0.9872694629946778,-0.10791023861220367,-1.4714088041432145,1.6686550468347754,-0.6108965557397467,-0.9759920926440043,0.04330391120715242,0.38299211061755495,0.6244254079782818,2.613051118139011,-0.5976239972214081,0.5079569213592391,0.6914283833763958,0.43853821746931926,23.496614121229346,-1.6164409834597346,-121.4453469287536,-0.04230529288273894,-1.0002195149626432,-0.14266970858214903,-1.1889744357621481,1.134570685866259,1.7257083539234164
2019-08-03 06:54:44.932732,0.9322716955929075,-0.5799921482263166,0.22924497109403832,26.042343438911995,-23.11437283380071,95.38695926669483,0.13382245034867024,0.9859866442202176,-0.10813472958040155,-1.3458038131425618,1.5733884376486962,-0.7369874269433825,-0.9787225548973764,0.034986712062239696,0.3834998670012854,-0.7604693992138518,3.4920036437184767,-0.15512730444661177,0.4262805760770608,0.7023237453416865,0.43064490141571304,23.07626487893732,-2.246479405938207,-127.6040876824137,-0.04419618308143115,-1.0011858291668572,-0.14268576036214542,-1.2099835598149433,1.310016152156089,1.955453480541837
2019-08-03 06:54:44.942732,0.9257880303247636,-0.5857310303621905,0.2291374813921334,26.772910516634184,-23.701050125494376,97.2126538193518,0.1346795520050811,0.9849193943862843,-0.10964071547086345,-1.1980600205196215,1.4237984224937779,-0.8482959206779614,-0.9791436466254703,0.028134940732673402,0.38236254302742223,-1.5114976292769318,3.875096339195425,0.2972936910263322,0.4097697549636821,0.6976047916876361,0.4317291565825137,22.394050722228926,-5.194727815142924,-129.9342903990039,-0.04611602821941135,-1.001566104512681,-0.14238876956578383,-1.2280931775718242,1.4110201870790917,2.108259989667802
2019-08-03 06:54:44.952732,0.8825243622280157,-0.5942219820038186,0.22896896294302663,29.69139868734525,-26.86384640405229,104.60547434222187,0.13537640296431921,0.9846636537846578,-0.11150468841570878,-1.071255263099603,1.2801271374405219,-0.9312762139155497,-0.9773096563148858,0.023820545762713037,0.37959816429751675,-1.6111761335535268,3.761577553207574,0.6724957825913908,0.3501528618416031,0.6986815890899215,0.4243864664485959,21.27475112307166,-10.933362728370843,-136.0252997822012,-0.04805595755406736,-1.001244156008813,-0.14177120893282033,-1.2452067080705074,1.4250574593658212,2.185395829609761
2019-08-03 06:54:44.962732,0.8217639758888947,-0.5823026517656239,0.2641565630921956,33.88999687631479,-32.020232463012285,113.52147961144568,0.13560340901178083,0.9854466927241702,-0.11300207350751311,-0.9885244062381952,1.1861937950899801,-0.9862558818998606,-0.9750441408833752,0.021222381274861153,0.3766465853010315,-1.6445573265549442,3.566589951522915,0.992985562920639,0.31374611474527525,0.6931738257229446,0.40428418761696144,20.005848326893787,-16.05407446708303,-141.0753360994422,-0.04985552151907395,-1.000518901772404,-0.1409842929443082,-1.2634136238240907,1.371933957643928,2.186829058380366
2019-08-03 06:54:44.972732,0.789883581352414,-0.5693614101655158,0.29981496365865107,38.17067026333272,-33.651706242111615,120.3237229170416,0.13544999752107684,0.9867606492656499,-0.11380732411096545,-0.9332392825234638,1.1530805060663436,-1.0412283765512185,-0.9732590052448611,0.02019611237463166,0.37409268647509525,-1.854002372839258,3.4778986115345423,1.2450166974347154,0.3028775768767302,0.6991678699907284,0.3779783199550934,19.611040382088348,-16.576381925973408,-139.8020073930097,-0.05146082947530446,-0.9995309685095288,-0.14012729762930162,-1.2862597126474666,1.2625560134231741,2.1181509664639826
2019-08-03 06:54:44.982732,0.7881325328314335,-0.5642887272168806,0.29589525340829903,38.84285155388309,-30.675243756908905,122.66592404188492,0.1350176448350643,0.9880268450198519,-0.1135390300225639,-0.8847320912066239,1.1878316244653153,-1.126775159238242,-0.972215948025309,0.02014237392323277,0.37205775444080397,-2.305266413961515,3.5304482617572788,1.455056838477609,0.28922192238393285,0.700808447185709,0.3597537781798373,18.854591477884007,-18.853119213929908,-140.30399638254946,-0.05271685494098672,-0.9984980502977973,-0.13939082269554548,-1.3110732186170027,1.0995902635184878,1.9836298904421403
2019-08-03 06:54:44.992732,0.7493587852487413,-0.5563168705808126,0.31612973867210975,37.02681557747973,-21.757567511383396,126.81617865411556,0.13420454612668647,0.988647502905049,-0.11164331413640464,-0.8254629791349525,1.3333173958790072,-1.2688538984506712,-0.9714559842752414,0.021372186250832766,0.37020440105917296,-2.8375148289930086,3.6148265079011415,1.5847777337622997,0.272420862570686,0.6611448863068277,0.3763075175202332,15.754035235256733,-29.219260578774183,-155.22263056629743,-0.05372937428836261,-0.9974909889506642,-0.1387051359217754,-1.3543807760611175,0.9181779289076062,1.7885380079908866
2019-08-03 06:54:45.002732,0.7047900050172066,-0.5616305373682224,0.33531307824619866,34.67518453850608,-9.19172275548478,130.6551766916171,0.1334908398759349,0.9889551464955101,-0.10925509171273176,-0.7565395939912474,1.4807012321261135,-1.4462197422627756,-0.9711070617509844,0.02337332022138961,0.3685624535679831,-3.4754613739624722,3.7372732030960716,1.6550472282082784,0.2031785775980723,0.6720971669611947,0.37144712440681,17.82916682972743,-22.607766286884512,-151.3668826809035,-0.05435331123791886,-0.996721875809006,-0.13825090478030175,-1.4142430898521905,0.7222246231870377,1.5371819544364647
2019-08-03 06:54:45.012732,0.6742653242915385,-0.590081837744765,0.3452258250709835,32.164197566162066,2.982755215407779,133.81019649644395,0.13333517747214105,0.9894125700320571,-0.10765981964834138,-0.683695138594075,1.5176874504843536,-1.6284086103756117,-0.9711376944226864,0.025857173322610554,0.36706198920423755,-4.193417637895537,3.8726125449738165,1.6706532008185524,0.14835145971650657,0.6477298567667356,0.3522339844267521,17.10157885081659,-21.2679979306302,-152.95465431277484,-0.054543607913551666,-0.9963414101915902,-0.13811153949488522,-1.4934920167848484,0.5278040351127598,1.2359374490537713
2019-08-03 06:54:45.022732,0.6606651035188268,-0.6048651431685154,0.35340287818270144,30.618455963245168,8.066134899507938,135.04454082628382,0.13383801643431537,0.9902153436772008,-0.10753337853746174,-0.6106728452005478,1.4080182436565885,-1.7924853803866962,-0.971516396260496,0.028535143042202827,0.3656330852049394,-4.965695209817831,3.9956687311661274,1.6363835305961305,0.15594684600313657,0.6230674165759105,0.36513073738120694,16.543008911699516,-20.900257461117043,-150.9225045239716,-0.05425071431778358,-0.996338501380968,-0.13836632231977763,-1.5809781648103765,0.32642745310868404,0.8988287422369259
2019-08-03 06:54:45.032732,0.6592583348197198,-0.6038958650486765,0.35572576367381104,30.45075699948394,8.346493474525294,135.1990705933461,0.1343958362807557,0.991021397403412,-0.10834907451035741,-0.536780541596559,1.265386687362491,-1.930747796734783,-0.9722116812345611,0.03111862686787367,0.36420581880709146,-5.766605678754985,4.081265959304753,1.5570260965440181,0.16321690111225584,0.6175715888695612,0.36857611391944006,16.702349811535495,-21.189713893111737,-150.73244791425148,-0.05341825479162928,-0.9966750930186145,-0.13909853232744812,-1.658378345626029,0.10356376068679599,0.5419213703787354
2019-08-03 06:54:45.042732,0.6217688701382853,-0.6047176873707647,0.34190980965437656,30.30719858152737,8.889794106619965,136.37934772780847,0.13439612556772979,0.9915672206123332,-0.10944657858005905,-0.4642042343141599,1.2073331509229739,-2.034981814345815,-0.9729763747186617,0.03285254082939877,0.36311417579871064,-6.542295926561891,4.129647897985689,1.4340386496378899,0.10166282697910031,0.6780800363296973,0.3420618064347939,15.796626890918827,-22.614613599467233,-156.15422411609643,-0.05199393826624305,-0.9973181502251545,-0.14038807057835737,-1.7074448094216768,-0.15372809175759036,0.18128400213723472
2019-08-03 06:54:45.052732,0.5214638590356319,-0.6247824046131343,0.3066266896748961,29.363033634297274,11.845596248723984,139.9339154186886,0.13275573707439908,0.9910979846356166,-0.11009788618923183,-0.390305938193301,1.4281435094559378,-2.1000021128388062,-0.9742524701177351,0.0344723021390303,0.36140157368763426,-7.328904684990822,4.059837942445869,1.2795193632713824,0.08634350448929894,0.6674038221689652,0.32764392506848355,16.194535886102717,-21.573709960365097,-155.17729042966485,-0.04996612612960065,-0.9982359489711012,-0.14224621370232185,-1.7150167740825604,-0.45435924106079173,-0.17293962317095446
2019-08-03 06:54:45.062732,0.46010072643694416,-0.6638088785447805,0.2755476754772828,28.606495748215433,10.12630457994873,142.13643390649705,0.12984565688025454,0.9900423068763035,-0.11012860604761071,-0.32101651910071094,1.8709199224984399,-2.1216000719789325,-0.975784695457132,0.03520531425071087,0.3594171617351725,-8.071521480750485,3.873034055187996,1.0948009692610559,0.03140511175158249,0.6869016761109045,0.28046908646266583,15.907724378686039,-18.42734982450748,-156.3405668747505,-0.047826306237203284,-0.9989843803648163,-0.14428136935053443,-1.6901568771541386,-0.7466045759110709,-0.4799206489163582
2019-08-03 06:54:45.072732,0.4681536465016886,-0.6719892245619107,0.26950331965522206,26.954607490748685,13.933773357967302,141.43716568885918,0.1267669375398769,0.989217777323482,-0.10979429559648234,-0.26285351720272027,2.339968314625216,-2.1008908725430073,-0.977536341778986,0.03478177241615101,0.35707366199632096,-8.74209920303704,3.541065299085429,0.884483868457509,-0.025301756431734546,0.6853337539693566,0.26004797133732804,13.632508961620253,-13.974772283010575,-156.07018376109454,-0.046142071288359496,-0.9990232403041898,-0.14599664815696978,-1.6463225562663957,-0.9756810724376561,-0.7012862788732435
2019-08-03 06:54:45.082732,0.38524246537295526,-0.7045826735568049,0.2690657506395514,33.4649477217917,-18.73530522362557,149.11145664583978,0.12518501168268886,0.9903087166956612,-0.10946834755105321,-0.2324160034841969,2.5823932672935355,-2.0354626052168587,-0.9793673763351561,0.032961291182164704,0.3544353448009638,-9.303010977503666,3.05602676069347,0.6522561332744637,-0.02861556219345074,0.6896457345424034,0.2627912670802269,13.682141600928915,-12.826431075963338,-156.11059503832752,-0.04532787996242857,-0.9979926837785308,-0.14701255882468617,-1.5957408111429094,-1.1009667518903625,-0.8135540447800313
2019-08-03 06:54:45.092732,0.37483470551849096,-0.7065058520918448,0.26506249445039476,35.82609154490836,-26.962464912517234,151.00359389464123,0.12513046660610933,0.992915676753302,-0.10922169539842196,-0.22371694208330278,2.56470332065898,-1.9334562054796194,-0.9810024398200714,0.029495889287538463,0.3520651139318681,-9.731664965002361,2.4954863813420713,0.4029709710666334,0.08442155246327976,0.7549441827062957,0.26438144357682697,19.74857038700976,-15.121891517200686,-157.80528795537253,-0.04518494318227506,-0.9962423083479466,-0.14743422109792084,-1.5391869050254001,-1.1425450193045033,-0.8480541628093183
2019-08-03 06:54:45.102732,0.3804268022980288,-0.6947285968591018,0.2509090378641804,40.060023654493804,-38.230546829923526,152.90973308871366,0.12571673454673649,0.9956021985480213,-0.10904599985687641,-0.22010656822772964,2.4055520120251677,-1.8079654041238837,-0.9821455281197135,0.025036102322222135,0.35009805581903347,-9.98329757176917,1.9186982310398701,0.14663758300481017,-0.21326683552112444,0.5907198001483794,0.2779893300545645,3.5627288792764444,-7.824388313024588,-152.99402099443193,-0.04536187870539198,-0.994302037296473,-0.1474837834149121,-1.4779137304126462,-1.1336788080092552,-0.8516683576951057
2019-08-03 06:54:45.112732,0.34545765986220944,-0.6780767250513835,0.2586752885941431,44.368707112062104,-50.170043460125136,155.32969672405542,0.12546288983887474,0.9964521595264892,-0.10870402789646344,-0.20176245693586703,2.2444541021426216,-1.6692032879378782,-0.9820801181407941,0.01726365119087642,0.35022387357388773,-9.982131868261622,1.4095302143525643,-0.13508890416564048,-0.13000316591549313,0.6452579791219765,0.2767015009680444,8.089917572183365,-10.602323264108676,-154.4698146140666,-0.045536917492160926,-0.9926790457622254,-0.14733312309541713,-1.412009579877802,-1.1046071488612335,-0.8714404536295169
2019-08-03 06:54:45.122732,0.32498887853967445,-0.6767712876955494,0.252294359563777,47.64423658089492,-56.91077157730294,157.51988783106717,0.12428571564516948,0.9952213947339122,-0.10831076712071096,-0.1655849308569997,2.131982872441177,-1.527512554859205,-0.9805294103658866,0.0067833388061562805,0.3525757616851817,-9.687055433531217,1.0243047882060603,-0.4327879255294147,-0.12766132887480974,0.6539691604712803,0.2704421068279603,9.615486790711664,-6.857151279299006,-156.22608182298404,-0.045610386372133334,-0.9914980830272825,-0.14707197699594218,-1.3427638519394582,-1.0659446685447886,-0.9177113588009493
2019-08-03 06:54:45.132732,0.3911052434341478,-0.742812841612074,0.22060753609235512,39.4780576199068,-49.593830305071826,160.80522531541777,0.1224513148052555,0.9927477485908636,-0.10787176085530283,-0.12568564440494526,2.074299198114273,-1.3912569757830187,-0.9778865790182092,-0.004692211913081725,0.3562225325825295,-9.168097495410679,0.7655994479000685,-0.7298522574404507,-0.1584176734247471,0.6119416243068572,0.31960462927990135,2.711374563754327,-22.306396593079445,-149.6702760885714,-0.045506875098370245,-0.9907952866306354,-0.14680089868180396,-1.2683823606085827,-1.026130412586084,-0.9902431931955634
2019-08-03 06:54:45.142732,0.32669983060675867,-0.6724187990014193,0.25473373785087305,49.01078866542116,-57.933463987073615,156.6832230658688,0.12161847617171445,0.9902916981838559,-0.10794634881094622,-0.08675061646368849,2.003998784188368,-1.2659262966463094,-0.9745009723724521,-0.01112253624310291,0.3584631543211277,-8.344773745263128,0.5712409132989746,-0.9627853331227736,-0.15140096459221009,0.6238771773944625,0.30912635704844765,3.6904425651259496,-19.413375172490184,-150.87482480944007,-0.04538742805940929,-0.9903844007967478,-0.1464035299770502,-1.194907916832383,-0.9720351964854158,-1.0776911500223354
2019-08-03 06:54:45.152732,0.25431761446392714,-0.5976675005860125,0.28772085816149473,59.641101058939114,-66.73477139047455,152.90070665972246,0.12231046311012962,0.988771170346932,-0.10864009271954349,-0.06101173028862916,1.9209520768359587,-1.158756882330795,-0.9709198808393237,-0.010816891464281346,0.3582178342455367,-7.303544761878562,0.4138397656124077,-1.116752409271044,-0.19506090225626782,0.6848724967781028,0.30174007573855666,2.02388906694132,-19.444211680858814,-148.99658575651065,-0.045199426263945235,-0.9902797092442158,-0.14595976323295326,-1.1212813503669512,-0.9100199627474154,-1.1786853758733136
2019-08-03 06:54:45.162732,0.26387590220246093,-0.6683284850909271,0.292768832151882,59.18555467353774,-61.39232506969575,153.32580805420164,0.12510053530256987,0.9888936804013708,-0.11008816323563711,-0.05428569254443486,1.801783389922247,-1.0736210957287777,-0.9675339702840042,-0.005749583011987995,0.3559580223556032,-6.1751561192842015,0.2802485300383006,-1.2126277078507488,-0.23454089029441658,0.6947993730313015,0.2741702028710914,1.3669104503303422,-17.937361962435645,-147.8108872415259,-0.04495116300764299,-0.9904383248314511,-0.1454935426619835,-1.0484681613479632,-0.8408893053342252,-1.289012304845543
2019-08-03 06:54:45.172732,0.21741564241163716,-0.6895204271204673,0.31605703553760633,62.27316728626694,-59.37239455747,152.59375219609421,0.12811534758275664,0.9901727058186739,-0.11153066088801476,-0.08010942848760019,1.7031290353035884,-1.0127642661494085,-0.964512759070505,0.0016983430939280018,0.3526352170137482,-5.077669223315382,0.19875700232614255,-1.275917579129645,-0.24959340940597535,0.6723403421265863,0.2602735459388817,0.5456667743803963,-17.39024594120021,-147.05965718552872,-0.044650931586167494,-0.9908173604168654,-0.14502881247661129,-0.9774338499110957,-0.7654478182079885,-1.4044583710360685
2019-08-03 06:54:45.182732,0.16989334091814803,-0.6399925444987602,0.31752855122044976,65.54316670732605,-55.20519957400857,151.82402231905704,0.12915736672652722,0.9919257442258078,-0.11206288207905148,-0.15145187670770072,1.6765566969004744,-0.975858996621086,-0.9622334453227136,0.00926018819031404,0.34885080144920155,-4.146358662083152,0.1587754504977063,-1.330444197828833,-0.2793072018513508,0.6251233191299458,0.23835887827970878,-2.423243335357189,-16.73310033381835,-146.52861264724584,-0.04430702529518365,-0.9913739288588709,-0.14458951688930696,-0.9091439161920254,-0.6845000953308482,-1.5208100085419365
2019-08-03 06:54:45.192732,0.1395476832255575,-0.6192627929409922,0.31925456928496593,67.8953363182815,-51.65861628151334,151.135358721243,0.12663991129628802,0.9935579786607487,-0.11106253185815691,-0.2751372300486379,1.753429371110803,-0.9604720869029008,-0.9607825747259832,0.01551568603103393,0.3452676559002248,-3.39025855628718,0.13474577795657194,-1.3849079329242737,-0.25611488532626964,0.5646848061343008,0.23669167053333537,-2.011134071115139,-15.942168223510345,-147.98583210622206,-0.04392773743035638,-0.9920651430158787,-0.14419960011254085,-0.8445638603264293,-0.5988507306649468,-1.633853651460191
2019-08-03 06:54:45.202732,0.10472997089966347,-0.6237050855796664,0.31641736209188065,69.42449109269008,-48.41587937979115,149.82556652626536,0.12255957270685204,0.9946257746859983,-0.10937056732763667,-0.4061161453966694,1.8205132490754024,-0.9475424785349049,-0.9613597496339651,0.014863960335645793,0.3427099135428347,-3.398902691730063,0.22431324291573537,-1.522430608864332,-0.15352057906325564,0.4772355885710941,0.2428180403423951,4.060621525973229,-14.151078713789268,-151.0404330531694,-0.04352136128735062,-0.9928481157463017,-0.14388300635878343,-0.7846591824499841,-0.5093043181724275,-1.7393757338878781
2019-08-03 06:54:45.212732,0.09143209836549587,-0.6118684181991401,0.3123009834842608,70.12736997578247,-46.647165749861145,148.89728559542317,0.11963279375406338,0.9946307818275388,-0.10815587460124665,-0.48770266473027624,1.7383546764283269,-0.9147696580804553,-0.9635397101102063,0.008233808886264482,0.3414361547450176,-3.9543977821571037,0.370410249417453,-1.7197546653652394,-0.18837854026994516,0.5147186882425642,0.244665280267291,1.9070854669062083,-14.6303889019738,-150.18294708120152,-0.04309619016183129,-0.9936799599085513,-0.143663679840505,-0.7303953826983665,-0.41666545181543335,-1.8331626899220432
2019-08-03 06:54:45.222732,0.055010568571669305,-0.600792593587377,0.33649329890518814,71.71463741176218,-42.00265460981911,146.83723890189484,0.11994133314420086,0.9933017130472649,-0.10830687350776079,-0.4791486156622232,1.4126749034880608,-0.84343809844793,-0.9667275642712303,-0.0028130830764241726,0.3414286920358503,-4.828972343611598,0.5411564997561205,-1.952191369618936,-0.39373152233879477,0.5548915472799492,0.2681188309547546,-16.103341484075344,-25.72633915478167,-139.70793753789079,-0.042660517349463314,-0.9945177883610393,-0.1435655647701759,-0.682737961207253,-0.32173872555610705,-1.911000953659731
2019-08-03 06:54:45.232732,0.035134729086301046,-0.6016162956723267,0.3519912783445653,72.6226167963735,-38.82594795659497,145.79980435015398,0.12198047013890503,0.9914155478399722,-0.10931347519575776,-0.4325208307900747,0.9439072571352171,-0.7436674784599813,-0.9704286218760753,-0.015305916427767388,0.3420616040784518,-5.7794564046106895,0.6894111579976022,-2.1816644877205795,-0.32853918656688563,0.5595849505104206,0.25619430302552415,-10.437160759588897,-19.208193724933295,-141.9761735143669,-0.04222263614591159,-0.9953187139621773,-0.14361260536026643,-0.6426524181123204,-0.2253287333565914,-1.968676959197986
2019-08-03 06:54:45.242732,0.024542833794303994,-0.6316485895145388,0.36779984185971654,73.51420217131975,-34.83993639516842,144.37643537871764,0.1236679952232101,0.9900891576345968,-0.11042786153177286,-0.4193099281089746,0.47604765690885564,-0.6318227072444184,-0.9740160972302073,-0.027415432964579853,0.34324357422677265,-6.561255071779003,0.7806109126416985,-2.3803705783534297,-0.46727316479598835,0.568873542972007,0.3159168995940899,-20.5117007374364,-30.222759919669627,-140.9527396425581,-0.04179083984684108,-0.9960398495703777,-0.14382874582324714,-0.6111042535492458,-0.12824006917902947,-2.001977140633856
2019-08-03 06:54:45.252732,-0.0049590804863219535,-0.6851845992193961,0.3951733312156323,76.31811125296744,-29.40078364474322,141.9862979547691,0.12317672919955447,0.9902683991672796,-0.11096886334047887,-0.5037872495102572,0.13525193723991202,-0.5214391733003326,-0.9781608230382555,-0.04231713955332574,0.34466768345599275,-7.797942342266351,0.9896209281876445,-2.61391346866615,-0.4884844554297722,0.4827327122064085,0.33191172379949946,-20.0419105515613,-29.54150522277697,-142.6242631169298,-0.04140360380886901,-0.9966838517179892,-0.14406013410708435,-0.5830730634563379,-0.026313985173951837,-2.025296603609806
2019-08-03 06:54:45.262732,-0.02435989921402681,-0.7018078462530073,0.40555637976365955,77.96302213384844,-26.848427913211626,140.9188075815385,0.12120934088868343,0.9915041897217413,-0.11096703004247382,-0.6540011974304341,-0.07493740976304768,-0.39560959833215326,-0.9795945748885782,-0.046583150977079754,0.3462433981770035,-7.403367064579259,0.8265970269513228,-2.6474448291791823,-0.4395602561350082,0.5861877957313089,0.29242157393803364,-19.61280728333303,-30.37284176799155,-140.1526345276985,-0.040997713595730303,-0.997099930597925,-0.14475195164990984,-0.5737062301601593,0.06788571062883328,-1.9903338752192727
2019-08-03 06:54:45.272732,-0.04963972000419896,-0.6392905576876392,0.4113918668970362,78.88051557706622,-21.617290466156742,139.97316397150513,0.11936108410809301,0.9927562675588559,-0.11067072026656248,-0.8001019523756487,-0.19596796526584992,-0.22558914779045805,-0.9788660176037312,-0.04287402821901608,0.3476705104508139,-5.91706246858738,0.44578874635874177,-2.537250114000052,-0.4620842521509573,0.6525015580349828,0.2898904419811617,-22.486531488226802,-31.65492481712153,-138.9509663200496,-0.04061927230115349,-0.9973022527309476,-0.145705412981553,-0.5764705667687455,0.15977212265147248,-1.916186922674155
2019-08-03 06:54:45.282732,-0.07433985008300148,-0.5720568202889962,0.4179482831632351,79.73401100355518,-16.65652688792413,139.23730082736313,0.11907158648692795,0.9931061011081213,-0.11030628328101275,-0.8790178994583042,-0.2703361602258471,0.01018465296135487,-0.975307120599466,-0.02869467129273344,0.3487158414239377,-3.0336169328356672,-0.20605979966345195,-2.2466995722190766,-0.47765635074641244,0.6582124119818453,0.2917408040339049,-24.06528206523804,-32.36685733151092,-138.26830970289794,-0.04028092228722934,-0.9972532514573188,-0.1469157142827208,-0.5930979141659137,0.2486574999025624,-1.7983615486252484
2019-08-03 06:54:45.292732,-0.08461732764499817,-0.5273877891381508,0.4237418640801273,79.84675860358107,-14.470867723059202,139.42754775747247,0.12024385562508413,0.9926177446381828,-0.10993334857124544,-0.9310543623805411,-0.3527684315952704,0.2908490217909525,-0.9689036274238104,-0.003926057982258016,0.349236547904461,1.243667378746512,-1.1175850780206849,-1.7837270434619108,-0.5111613994875018,0.6147399497626912,0.30309581517465717,-27.132612899649065,-33.11266942657255,-138.17732376685206,-0.04000036136390774,-0.9970151574719608,-0.14823367870620413,-0.6166163550923451,0.337213811426236,-1.6575825620762055
2019-08-03 06:54:45.302732,-0.09530218820822003,-0.47871545806032406,0.4328804543706825,78.81580250992717,-9.521912512645388,138.9959932953726,0.12230562231262643,0.9917029916511184,-0.10962012111950191,-1.0359858429496827,-0.5174144793217813,0.5782123386969048,-0.9622232202242118,0.020867365369345737,0.3492026078879687,5.207186590731805,-1.88044488127234,-1.3396942163665169,-0.5496028144886436,0.5180471262671227,0.33620750237372865,-31.13656984660241,-34.9554551537509,-139.61226069551316,-0.039819684183598394,-0.9966752746039151,-0.14941038934639053,-0.6367976906985807,0.43150045692417016,-1.5236190807778744
2019-08-03 06:54:45.312732,-0.099836808137739,-0.4786005317824831,0.43615615919354866,77.35253361649514,-6.1240725324255045,137.9256765453657,0.12467428715903646,0.9907621490191291,-0.10939373776889755,-1.2411816287555728,-0.8003723081424157,0.8353539426134435,-0.9581567994320465,0.03413440245365183,0.3485899965411101,7.0221087709487895,-2.0611314432098062,-1.1263113034703631,-0.5624086486463585,0.48618429579897765,0.3474428524665018,-32.22493143752458,-36.09638608099088,-140.15635279806668,-0.03977472198667526,-0.9963211657932578,-0.15021335562393162,-0.6450205587407317,0.53645500258139,-1.423281645846331
2019-08-03 06:54:45.322732,-0.13220873445739534,-0.561167517425688,0.4310926330339058,76.26632588900596,-1.5388521640899764,136.31931288975136,0.12723453845321525,0.9900818344444144,-0.10904146237320086,-1.4520436271609116,-1.1153083706747262,1.0297744397098156,-0.9587017381634428,0.028222187819696855,0.3474947903949943,5.544344146168055,-1.4001383284787112,-1.2863560143780524,-0.5851341552637389,0.4487823408697601,0.35400121130382733,-33.553539527525444,-39.1429922979893,-140.61917456848477,-0.039863562500207124,-0.9959850436680968,-0.15059480818414317,-0.6428449406805035,0.6497080618038122,-1.3566158028888577
2019-08-03 06:54:45.332732,-0.2139288201684496,-0.721034553872667,0.42198784183138494,74.50934871727641,6.8190013235501565,133.30384036293665,0.12975728967607483,0.9899797476908677,-0.10830579989934296,-1.5569500117739776,-1.3421792921296882,1.1322945461714533,-0.962495123975014,0.010120817255201848,0.34621900279072637,2.128395575433474,-0.25159876136233256,-1.7092354167412038,-0.592528004510268,0.46101524669317684,0.34226511202526805,-33.58828347005286,-40.525224921194706,-140.77791537901498,-0.040053941446351174,-0.9956909970783262,-0.150606980351884,-0.6372330155158099,0.7641504379171982,-1.3116504050178677
2019-08-03 06:54:45.342732,-0.2743597781097332,-0.7226731276644411,0.4245038532647117,74.87864287498857,8.233636439312138,131.76411357191742,0.13194088201537318,0.9903089392731521,-0.10733224956808014,-1.5457214407034927,-1.4414986467611761,1.152278992410422,-0.9676720694853584,-0.010145477758463469,0.3453231926448819,-1.4314529938039238,0.9177132747616683,-2.218312260677608,-0.586044828500286,0.4814084936628363,0.32165841272184265,-35.11501415307902,-40.74890660806736,-140.048638088917,-0.04031814048221152,-0.9954582052290055,-0.15036099860804875,-0.6331552150581565,0.872652010613242,-1.2768833149024437
2019-08-03 06:54:45.352732,-0.31066688971120554,-0.6607717032428934,0.42336874829013155,76.29688553327036,7.040692455556697,131.69559135004738,0.13269149602044183,0.9908383055864652,-0.10639974393743315,-1.4619929807889562,-1.3639314651638568,1.1137513369585093,-0.9721906332788407,-0.02592911519374124,0.34491331200529246,-3.2788671237411324,1.6047454964370036,-2.7468620465304143,-0.5665284682129889,0.5705535701812454,0.28000598250731035,-30.847126246084866,-42.43413389404407,-140.67765661772867,-0.0405982889419892,-0.9953443931421039,-0.1497093506282369,-0.6447960082368368,0.9672720009752365,-1.239877155074921
2019-08-03 06:54:45.362732,-0.33465236206054727,-0.5464698826489988,0.4323590782761201,80.45399250693,-1.9029300441529218,133.20729427656332,0.13149485690987736,0.991230342633028,-0.10580750545606427,-1.3452828905792305,-1.0964007096297177,1.0448655407438772,-0.9750971208429711,-0.0313199105451722,0.34531259404923215,-2.7181107697646167,1.634818611377561,-3.1654338121794603,-0.6035642948556169,0.38632267006897786,0.33296788545492495,-42.452220867338056,-38.76219789519723,-138.02087291373618,-0.04088045028631003,-0.9953516739365393,-0.14880521494055834,-0.6723205216989117,1.043481729843159,-1.1939677068341659
2019-08-03 06:54:45.372732,-0.29998162226582603,-0.35339729701661626,0.44685706789467067,87.03801430039142,-25.020008205933962,135.344556359683,0.129160889923672,0.9912425745073641,-0.10558857580183303,-1.226461066144722,-0.7296482602108821,0.9623484045349932,-0.9764333116457459,-0.028347908452728825,0.34609553084567113,-0.6893045901928552,1.2493983045565928,-3.476726287385846,-0.6062607351408151,0.35986027463498266,0.3350339717321104,-43.96648377681861,-38.44275551866656,-137.40398479422078,-0.04115918882594766,-0.9954448870529488,-0.14785463421430978,-0.7112071322158748,1.1000645538219775,-1.136432823607811
2019-08-03 06:54:45.382732,-0.21872597418796091,-0.3447700504693268,0.4893140830665544,88.60152594896026,-35.35137353207447,132.52899169985815,0.12792267648803046,0.9906781825629901,-0.10599233609069988,-1.1237999441662194,-0.44804625053539965,0.8803171578454901,-0.9771627224056308,-0.013528285535663799,0.34802716715524706,2.203694302913335,0.654277177164198,-3.5177075283026387,-0.6043150891370407,0.3265476149010145,0.3827587380743927,-46.61908613259316,-37.01960381865401,-135.50065211583683,-0.041460422698998,-0.9956326992361264,-0.14693233147101592,-0.7501287973336193,1.1407554211981659,-1.0810212856519148
2019-08-03 06:54:45.392732,-0.2398420751996509,-0.6644293579780257,0.49710852712138226,88.89604608509416,-39.56997934460554,127.11446553691269,0.12900675702199618,0.9894244129027094,-0.10695034689661906,-1.058392759572151,-0.36928791506102937,0.8084325468624587,-0.9773457439225067,0.012304513120598397,0.35084567785688503,5.1324992023733875,0.07350387344463657,-3.2595389502407626,-0.6039500107882279,0.28768955601708884,0.43223840346004777,-48.87837196473173,-35.49319234179306,-133.88488062092725,-0.04178294280088044,-0.995878055656951,-0.146248421712076,-0.7832598370876781,1.165086028928765,-1.0266950820973708
2019-08-03 06:54:45.402732,-0.2552847148197717,-0.7662205556022652,0.49107719210426,89.50758103468404,-40.18220738942979,125.73801275391882,0.13153581088936842,0.9879308192629936,-0.10808392849621827,-1.0263235529706185,-0.43353466795332746,0.7478888437708581,-0.9770469297103628,0.042344478706127786,0.35365343151843925,7.378148815607468,-0.3219221736342875,-2.866382291811384,-0.6073784385549866,0.3445074175932059,0.3926887659191549,-49.8654792225899,-33.147534613670565,-131.49968457179526,-0.04215911114542967,-0.9964038893307732,-0.14573572482195069,-0.8102898066536723,1.1622037677546815,-0.9792329555831948
2019-08-03 06:54:45.412732,-0.2682870144151549,-0.7018781332211628,0.48203613690179326,89.83630561793493,-38.01511161436232,126.12268104933695,0.13353931838392072,0.9859232940936952,-0.1083219928527171,-1.0304921256287223,-0.5098702833263623,0.6873498017903878,-0.9752977015881882,0.054286978622155,0.353047482435527,7.084603824827795,-0.2083353994606707,-2.9219323283508927,-0.6269834937748522,0.4267275237921138,0.34589257777600446,-49.85772849818651,-27.78402016076464,-129.44641516308616,-0.04252808489593265,-0.9965551660427971,-0.14618117405451972,-0.8061355265266029,1.1620516319860426,-0.9343030536809553
2019-08-03 06:54:45.422732,-0.3131705908069764,-0.6230752794946666,0.46904609395447644,89.16243033481445,-32.66385493296935,125.05038003273661,0.13365604138949053,0.9837363846818444,-0.10710561855068083,-1.062831463736021,-0.4992865724980621,0.6225117664122889,-0.9717037597541869,0.03147088304956856,0.3466843711004035,3.0241223478023977,0.6410633114714435,-3.8686090719442747,-0.5063595653546552,0.6384121796484867,0.2172622812015093,-40.14745766675449,-30.40461789137268,-123.88258006758691,-0.04292302710001149,-0.9965739975282606,-0.1474907783159939,-0.7713196672007747,1.1529264926846665,-0.8978653503400461
2019-08-03 06:54:45.432732,-0.39152238656804933,-0.49398229617205697,0.4866686729075037,96.41851991021356,-33.57166093527765,125.64110445415332,0.1320408810463179,0.9815364551453869,-0.10475374755127109,-1.112456659989849,-0.3921411040057953,0.5592592831344642,-0.9671492359206233,-0.015409976645081102,0.33656327453169566,-3.1919423751489893,1.9354578709605215,-5.434116002419866,-0.5609680320316984,0.5639819803728667,0.26151739854560346,-43.48174511023126,-27.929569743547884,-125.91176155761485,-0.043291219208904504,-0.9964809295009515,-0.1495010999436253,-0.7087596148765994,1.1338125389571578,-0.8748249330161748
2019-08-03 06:54:45.442732,-0.36337516578439827,-0.38803246008450304,0.5827273458651683,105.14753695223747,-44.74872660185542,128.8883191689738,0.13012197671263492,0.9810624861227238,-0.10261759901650462,-1.1616879424434698,-0.275179047628567,0.5205678987392366,-0.9639195388129063,-0.04778266730118152,0.32928242881381914,-6.7671974835639,2.8296852142060276,-6.749254984190885,-0.750161237599358,0.28686730987250847,0.4213294907490573,-57.304851888847914,-23.79807216771088,-134.57576860589046,-0.04368393368972785,-0.9966878773942429,-0.1517316553941156,-0.6346469352308324,1.0879992683749067,-0.8666341362667737
2019-08-03 06:54:45.452732,-0.3428173108415628,-0.3204243961825014,0.6468979340941806,110.5633721105263,-54.76373018005281,128.8879761777134,0.12902603456061443,0.9832273643202567,-0.1017853381361261,-1.1944653177594442,-0.20377411374859608,0.5237645617833699,-0.9629733970687095,-0.04904084392059335,0.32763264407241177,-5.778987155910444,2.9626976688767117,-7.363097481520364,-0.7700817983041691,0.19639348781784588,0.4471467317685088,-61.537261622438386,-29.522416264396647,-138.38618753795654,-0.044086155791910955,-0.9974745220648983,-0.1536691309150404,-0.5642002593688868,1.0043081292742826,-0.8777840549035085
2019-08-03 06:54:45.462732,-0.33815146926355766,-0.3045453464479786,0.6485253990201992,113.08787680102888,-54.4392280299866,125.13769640211248,0.1294420511075193,0.9883383880530446,-0.10280789487883515,-1.201498128910723,-0.21426126497883158,0.5747325496635749,-0.9637719283286116,-0.029186712395522067,0.32999833814502816,-1.9667017752167109,2.596985700396393,-7.455262587663756,-0.7512110362072068,0.16063890728852104,0.4597101561936343,-62.44058443236314,-33.54073836639832,-139.34799481405307,-0.044485537777616345,-0.9990974209260528,-0.15483855474699426,-0.512217492102157,0.8725405046411163,-0.9112872814263889
2019-08-03 06:54:45.472732,-0.3465588509513578,-0.3093847218101449,0.5964445851955432,113.63066302646725,-46.463334523142144,119.57842250203049,0.13073713546175053,0.9937150001341903,-0.10462922875603403,-1.1899043354311276,-0.24512022058872607,0.6463684719783861,-0.9656225153560861,-0.0011655694244510897,0.33385919609452896,3.122916263434273,2.0267403930154257,-7.030818326202519,-0.7129791399847647,0.09714773210873609,0.49692349637842054,-65.15683918294103,-39.654928146361385,-139.9865959873757,-0.04478360150412911,-1.0012978438563578,-0.15518970585348413,-0.4797209482492469,0.7060505284743721,-0.9673779442935257
2019-08-03 06:54:45.482732,-0.37180027251213366,-0.27053716232294867,0.5993257608731166,115.41240888118303,-34.6355394398793,113.44613330651512,0.13231823656571715,0.996673699461432,-0.10614712476714948,-1.169490618694291,-0.24455045949016846,0.7105631763005118,-0.967896652536491,0.024019514913631045,0.3373114239873262,7.709075774189316,1.5375539510568412,-6.236937884071137,-0.7001601117245891,0.08846093940775263,0.5088218150146244,-66.41454000972081,-40.96064930431381,-140.02299476334775,-0.04483440669961425,-1.0035614340107692,-0.1548677147127778,-0.4621997312736744,0.5294836862325527,-1.0437606296224577
2019-08-03 06:54:45.492732,-0.3758108677591061,-0.2691900529841495,0.5538451362475482,115.08325475609831,-30.376118075986366,112.21941632108316,0.13357617432701113,0.9944125072857792,-0.10623103606063788,-1.1512122763083539,-0.15723466924343396,0.7390197451146381,-0.9701594635097673,0.03951662394293569,0.33924101208150037,10.789666920623644,1.2876853849819854,-5.239187469377628,-0.7073953933873264,0.13550564995664355,0.4729131438265622,-65.41618160643793,-35.343317820118884,-137.3332115670535,-0.04509725932475388,-1.0058192797702032,-0.15447271635731827,-0.46819950337100463,0.36349933562468856,-1.1280553544958056
2019-08-03 06:54:45.502732,-0.5217078629355253,-0.25733089786526875,0.6989096116738409,120.68339118369335,-22.408449788206557,104.87785848345447,0.1342998302012527,0.9878453199631863,-0.10488087645139994,-1.1327889276134173,0.005723351284288679,0.7260620305543513,-0.9725090960248914,0.04941511211795589,0.34048835540299527,12.782147203748078,1.1755112990196972,-4.079082232407634,-0.7155041322043418,0.11962079861469482,0.42431244896950165,-63.76524515200272,-26.613951251802455,-134.38223931289602,-0.044113659723812766,-1.006593535308442,-0.1531553446094034,-0.4657817693069079,0.24110470933297262,-1.2390693681892275
2019-08-03 06:54:45.512732,-0.5369640509558596,-0.2257890072076819,0.7069452421199779,122.02942369455609,-26.631630161687777,104.00718059008113,0.13455283612724328,0.9822411345397981,-0.10328101831317876,-1.0955677786668139,0.16389751658787433,0.6900172505488807,-0.9748104779312476,0.05321527547711018,0.3411376395971522,13.567250408416236,1.1985602919049008,-2.9085086206293584,-0.7239890749777689,0.09801443065672727,0.40843338756035014,-63.65581484651879,-22.106216419397672,-133.62971503095375,-0.042179340362129523,-1.0056951181762626,-0.15139210363012062,-0.4600392161265193,0.18401234013909903,-1.3670827094977815
2019-08-03 06:54:45.522732,-0.5408626598643916,-0.19146204617618345,0.7605339988569376,125.10927861745104,-29.092936635599337,102.11605042491965,0.13439194357772294,0.9827220024102491,-0.10257979155824949,-1.021724493398923,0.24066755009383367,0.6486448001175718,-0.9767996242101458,0.052728034676892105,0.3415179689742945,13.863409410060859,1.2419616066936485,-1.691846751078144,-0.7569368238982354,0.06578614595148753,0.44881085932620784,-65.85791408972965,-15.299442850188415,-133.36420327229166,-0.03914503747019858,-1.002700415423086,-0.14930123694080724,-0.4444588644722956,0.21146608878024337,-1.5080622213507817
2019-08-03 06:54:45.532732,-0.5072714540995397,-0.12105624799107483,0.8077710270247492,129.18869655696088,-37.36497659423812,98.22974923875013,0.13400600175087551,0.9890972928118682,-0.10289090765332885,-0.9200914608643768,0.2297654495083184,0.6042884605730812,-0.9787597676271425,0.045626301809099004,0.3416971091091206,12.161623431657441,1.472063338706139,-0.9013174300542366,-0.83402738206899,0.05221456567834889,0.506190294246538,-69.8190254287864,-9.20814822576873,-132.22061430338536,-0.0363280395450099,-0.9987698357602137,-0.14780054853130112,-0.4424123292854566,0.30560442778609,-1.6333821075306474
2019-08-03 06:54:45.542732,-0.47343719980181304,-0.08124820223560661,0.744882482813337,130.47590631857108,-41.75104158016225,95.29583217559255,0.13378898926657928,0.9965377308797386,-0.10351182118628621,-0.8237488764488545,0.18325405878272277,0.5492215998747149,-0.9804604530190533,0.033467447968699715,0.3419881512175411,9.043843072907283,1.7912259463449516,-0.5324178643897688,-0.8428921033842142,0.20337063620871237,0.5307667679527889,-63.9143968564131,2.9090327749899645,-136.5790316222513,-0.035697352797595804,-0.9957858185173901,-0.14822060612681412,-0.4871737415953176,0.4302734099058187,-1.7023348650257972
2019-08-03 06:54:45.552732,-0.4208085615479382,-0.049255584247893856,0.6711948495723212,133.33136247262274,-42.37529967865569,91.49220056960452,0.13405800543547655,1.0008124039668425,-0.10380912609824668,-0.7589733241996149,0.14897365139907592,0.4754752657937336,-0.9818355064241431,0.01673134184667858,0.3426488962818965,4.467526835737103,2.1799183780548557,-0.7245756975163565,-0.8504901480770193,0.17634636783164892,0.5193449685672998,-66.0792433071591,0.4491096387430886,-135.39245069078794,-0.03742673979092655,-0.994464657061137,-0.15048790192487463,-0.5705735276321744,0.5523423301572622,-1.700005451050905
2019-08-03 06:54:45.562732,-0.39089991616548064,-0.036225479585087345,0.6346505741600502,134.63985397222893,-40.655862059847514,88.90322155868695,0.13475207194029215,1.0021807946197738,-0.10382736147932041,-0.7194910642679507,0.12874981260132734,0.3821659777085554,-0.9828251320956148,-0.003295481711488139,0.34392560224799695,-1.3153458589173137,2.590035168644901,-1.5155059309658163,-0.865799969597958,-0.042716123331565006,0.48189555996981037,-78.44632075604977,-18.92489356417322,-128.69614702050475,-0.039887937536805015,-0.9942580296281422,-0.1531829847091662,-0.6424711461883319,0.6468674021484343,-1.6365464980394893
2019-08-03 06:54:45.572732,-0.42370959791167956,-0.02650909788900363,0.5793206804449691,135.44798580154173,-34.43699778329773,85.47860135273396,0.13569463989792352,1.001415469569597,-0.10363037783407837,-0.6926522298436749,0.1221822992815693,0.26714944723828354,-0.9832385469131699,-0.02539356993923421,0.3456101549147057,-7.542657854498547,2.9493319933324673,-2.694751324116666,-0.8368321489961252,-0.05465224910141921,0.4685158886076862,-79.71881900936955,-23.436921596888364,-129.0140599396084,-0.04140611587073738,-0.9946514959608512,-0.1547966291272188,-0.6524525138930267,0.6855712299937248,-1.5236552897196327
2019-08-03 06:54:45.582732,-0.4944325130808737,0.0030494175120731374,0.6644951845695649,138.26647444167915,-24.507734469802216,80.79540011638963,0.13673375983214564,0.9987218336216073,-0.10346698339947383,-0.6744586657684858,0.12781224806906322,0.14013498066370791,-0.9834276452639878,-0.04770416038538879,0.34668171338522175,-14.446840054536889,3.293717724452058,-4.2793506249190205,-0.8300071640615003,-0.12383682317010432,0.49281313125630233,-85.55184626130445,-33.60711701545838,-127.1084371686973,-0.04030645143877191,-0.9951164676720756,-0.1538286553700503,-0.5500228308726492,0.6410058422689253,-1.372961812942184
2019-08-03 06:54:45.592732,-0.5684098008841544,0.028482872075222904,0.7981193526322806,140.08355496373713,-21.773561510483216,77.70692908200485,0.13764221762943568,0.9960275403084418,-0.10301995984335924,-0.6345463713399212,0.14752560426497324,-0.025361171362781543,-0.9823166042752931,-0.06620027568935734,0.3490409412162565,-18.45707673111821,3.2244040000127425,-5.406657772467147,-0.8276049094473801,-0.16062057375095698,0.5267214823573633,-89.03992605151547,-39.71590445271518,-126.32818840916092,-0.03514920900744811,-0.9951492348854943,-0.14912227353773053,-0.29537731907450593,0.48449856170346045,-1.1936603460812467
2019-08-03 06:54:45.602732,-0.5714925820946708,0.07089215502801519,0.8447027992606408,143.83379553552734,-25.79517261700523,74.81538358154556,0.1382611905543572,0.9936952723065805,-0.1024864251605013,-0.5665094299693297,0.18016895653872456,-0.22293489689761375,-0.9800803304358744,-0.0787543692290126,0.3520291637100652,-19.334326846346446,2.7234121670684885,-5.984660815436095,-0.843997220191963,-0.16411100096404563,0.5881312481158745,-92.47857135495026,-44.42879618465148,-125.08959415002363,-0.03214284165234238,-0.9958663917243283,-0.14519922932408982,-0.12474378433860796,0.4164665795668486,-1.0047271751097484
